ACCELEROMETER X (m/s²);ACCELEROMETER Y (m/s²);ACCELEROMETER Z (m/s²);GRAVITY X (m/s²);GRAVITY Y (m/s²);GRAVITY Z (m/s²);LINEAR ACCELERATION X (m/s²);LINEAR ACCELERATION Y (m/s²);LINEAR ACCELERATION Z (m/s²);GYROSCOPE X (rad/s);GYROSCOPE Y (rad/s);GYROSCOPE Z (rad/s);MAGNETIC FIELD X (μT);MAGNETIC FIELD Y (μT);MAGNETIC FIELD Z (μT);ORIENTATION Z (azimuth °);ORIENTATION X (pitch °);ORIENTATION Y (roll °);Time since start in ms ;YYYY-MO-DD HH-MI-SS_SSS
0.59855;0.73023;9.94073;0.57563;0.68869;9.76549;-0.00342;0.02238;0.14172;-0.07758;0.011;0.80573;10.86;11.28;-34.8;316.656;-4.267;-2.919;27;2021-02-11 20:50:36:305
0.61052;0.67277;9.90242;0.61664;0.63692;9.7665;-0.00612;0.03585;0.13592;-0.02871;0.00183;1.07268;11.82;11.04;-33.84;312.925;-3.724;-3.613;58;2021-02-11 20:50:36:336
0.61052;0.67277;9.90242;0.61664;0.63692;9.7665;-0.00612;0.03585;0.13592;-0.02871;0.00183;1.07268;11.82;11.04;-33.84;312.925;-3.724;-3.613;88;2021-02-11 20:50:36:366
0.60094;0.63686;9.79468;0.61664;0.63692;9.7665;-0.00612;0.03585;0.13592;-0.02871;0.00183;1.07268;11.82;11.04;-33.84;312.925;-3.724;-3.613;118;2021-02-11 20:50:36:396
0.60094;0.63686;9.79468;0.67376;0.62926;9.76322;-0.04408;-0.02353;0.14399;-0.02871;0.00183;1.07268;12.66;8.52;-35.1;312.925;-3.724;-3.613;148;2021-02-11 20:50:36:426
0.60094;0.63686;9.79468;0.67376;0.62926;9.76322;-0.04408;-0.02353;0.14399;0.08552;-0.0171;1.4563;12.66;8.52;-35.1;312.925;-3.724;-3.613;178;2021-02-11 20:50:36:456
0.60094;0.63686;9.79468;0.67376;0.62926;9.76322;-0.04408;-0.02353;0.14399;0.08552;-0.0171;1.4563;12.66;8.52;-35.1;312.925;-3.724;-3.613;208;2021-02-11 20:50:36:486
0.64643;0.58419;10.00297;0.73104;0.61947;9.75973;-0.087;-0.04246;0.23367;0.08552;-0.0171;1.4563;12.66;8.52;-35.1;312.925;-3.724;-3.613;238;2021-02-11 20:50:36:516
0.64643;0.58419;10.00297;0.73104;0.61947;9.75973;-0.087;-0.04246;0.23367;0.08552;-0.0171;1.4563;13.08;6.54;-35.7;300.425;-3.622;-4.284;268;2021-02-11 20:50:36:546
0.64404;0.52912;9.8689;0.73104;0.61947;9.75973;-0.087;-0.04246;0.23367;0.17471;0.02993;1.70676;13.08;6.54;-35.7;300.425;-3.622;-4.284;298;2021-02-11 20:50:36:576
0.64404;0.52912;9.8689;0.73104;0.61947;9.75973;-0.087;-0.04246;0.23367;0.17471;0.02993;1.70676;13.08;6.54;-35.7;300.425;-3.622;-4.284;328;2021-02-11 20:50:36:606
0.64404;0.52912;9.8689;0.68152;0.58103;9.76567;-0.03748;-0.08064;0.199;0.17471;0.02993;1.70676;13.08;6.54;-35.7;300.425;-3.622;-4.284;359;2021-02-11 20:50:36:637
0.64404;0.52912;9.8689;0.68152;0.58103;9.76567;-0.03748;-0.08064;0.199;0.17471;0.02993;1.70676;13.92;3.3;-36.24;287.091;-3.397;-3.992;388;2021-02-11 20:50:36:666
0.67038;0.46926;9.90481;0.68152;0.58103;9.76567;-0.03748;-0.08064;0.199;0.24679;0.08613;1.96515;13.92;3.3;-36.24;287.091;-3.397;-3.992;418;2021-02-11 20:50:36:696
0.67038;0.46926;9.90481;0.67722;0.58338;9.76583;-0.01488;-0.16332;0.0996;0.24679;0.08613;1.96515;13.92;3.3;-36.24;287.091;-3.397;-3.992;448;2021-02-11 20:50:36:726
0.67038;0.46926;9.90481;0.67722;0.58338;9.76583;-0.01488;-0.16332;0.0996;0.24679;0.08613;1.96515;13.92;3.3;-36.24;287.091;-3.397;-3.992;477;2021-02-11 20:50:36:755
0.69192;0.40941;9.93354;0.67722;0.58338;9.76583;-0.01488;-0.16332;0.0996;0.24679;0.08613;1.96515;14.04;-0.84;-37.14;273.946;-3.41;-3.967;507;2021-02-11 20:50:36:785
0.69192;0.40941;9.93354;0.68565;0.63723;9.76188;-0.01488;-0.16332;0.0996;0.32132;0.14539;2.2095;14.04;-0.84;-37.14;273.946;-3.41;-3.967;538;2021-02-11 20:50:36:816
0.69192;0.40941;9.93354;0.68565;0.63723;9.76188;-0.01395;-0.23236;0.11317;0.32132;0.14539;2.2095;14.04;-0.84;-37.14;273.946;-3.41;-3.967;568;2021-02-11 20:50:36:846
0.70629;0.34237;9.89284;0.68565;0.63723;9.76188;-0.01395;-0.23236;0.11317;0.32132;0.14539;2.2095;14.04;-0.84;-37.14;273.946;-3.41;-3.967;599;2021-02-11 20:50:36:877
0.70629;0.34237;9.89284;0.67451;0.65778;9.76129;-0.01395;-0.23236;0.11317;0.32132;0.14539;2.2095;13.26;-5.4;-36.6;260.587;-3.846;-3.953;628;2021-02-11 20:50:36:906
0.70629;0.34237;9.89284;0.67451;0.65778;9.76129;0.02326;-0.33777;0.10571;0.36591;0.19731;2.42575;13.26;-5.4;-36.6;260.587;-3.846;-3.953;658;2021-02-11 20:50:36:936
0.70629;0.34237;9.89284;0.67451;0.65778;9.76129;0.02326;-0.33777;0.10571;0.36591;0.19731;2.42575;13.26;-5.4;-36.6;260.587;-3.846;-3.953;689;2021-02-11 20:50:36:967
0.71347;0.25857;9.86411;0.67451;0.65778;9.76129;0.02326;-0.33777;0.10571;0.36591;0.19731;2.42575;13.26;-5.4;-36.6;260.587;-3.846;-3.953;718;2021-02-11 20:50:36:996
0.71347;0.25857;9.86411;0.66027;0.60759;9.76551;0.06315;-0.34902;0.13757;0.36591;0.19731;2.42575;11.34;-11.64;-35.1;233.524;-3.552;-3.868;748;2021-02-11 20:50:37:026
0.73023;0.19393;9.84256;0.66027;0.60759;9.76551;0.06315;-0.34902;0.13757;0.39218;0.25168;2.65177;11.34;-11.64;-35.1;233.524;-3.552;-3.868;778;2021-02-11 20:50:37:056
0.73023;0.19393;9.84256;0.66027;0.60759;9.76551;0.06315;-0.34902;0.13757;0.39218;0.25168;2.65177;11.34;-11.64;-35.1;233.524;-3.552;-3.868;808;2021-02-11 20:50:37:086
0.73023;0.19393;9.84256;0.62634;0.588;9.76895;0.14516;-0.46264;0.14011;0.39218;0.25168;2.65177;11.34;-11.64;-35.1;233.524;-3.552;-3.868;840;2021-02-11 20:50:37:118
0.73023;0.19393;9.84256;0.62634;0.588;9.76895;0.14516;-0.46264;0.14011;0.39218;0.25168;2.65177;7.14;-16.86;-34.86;211.76;-3.437;-3.669;868;2021-02-11 20:50:37:146
0.73981;0.12929;9.87608;0.62634;0.588;9.76895;0.14516;-0.46264;0.14011;0.40134;0.30299;2.86618;7.14;-16.86;-34.86;211.76;-3.437;-3.669;897;2021-02-11 20:50:37:175
0.73981;0.12929;9.87608;0.584;0.57362;9.77243;0.14516;-0.46264;0.14011;0.40134;0.30299;2.86618;7.14;-16.86;-34.86;211.76;-3.437;-3.669;928;2021-02-11 20:50:37:206
0.73981;0.12929;9.87608;0.584;0.57362;9.77243;0.17707;-0.50516;0.0812;0.40134;0.30299;2.86618;7.14;-16.86;-34.86;211.76;-3.437;-3.669;958;2021-02-11 20:50:37:236
0.7853;0.03831;9.92876;0.584;0.57362;9.77243;0.17707;-0.50516;0.0812;0.40134;0.30299;2.86618;1.56;-20.34;-33.18;192.392;-3.353;-3.42;988;2021-02-11 20:50:37:266
0.7853;0.03831;9.92876;0.55771;0.50094;9.77796;0.17707;-0.50516;0.0812;0.39462;0.35064;3.05555;1.56;-20.34;-33.18;192.392;-3.353;-3.42;1018;2021-02-11 20:50:37:296
0.7853;0.03831;9.92876;0.55771;0.50094;9.77796;0.18095;-0.48034;0.08744;0.39462;0.35064;3.05555;1.56;-20.34;-33.18;192.392;-3.353;-3.42;1048;2021-02-11 20:50:37:326
0.80206;-0.05986;9.92876;0.55771;0.50094;9.77796;0.18095;-0.48034;0.08744;0.39462;0.35064;3.05555;1.56;-20.34;-33.18;192.392;-3.353;-3.42;1079;2021-02-11 20:50:37:357
0.80206;-0.05986;9.92876;0.55771;0.50094;9.77796;0.18095;-0.48034;0.08744;0.39462;0.35064;3.05555;-3.6;-21.9;-31.74;173.903;-2.928;-3.264;1108;2021-02-11 20:50:37:386
0.80206;-0.05986;9.92876;0.50486;0.42944;9.78423;0.31879;-0.51377;0.10987;0.38851;0.40195;3.25469;-3.6;-21.9;-31.74;173.903;-2.928;-3.264;1138;2021-02-11 20:50:37:416
0.80206;-0.05986;9.92876;0.50486;0.42944;9.78423;0.31879;-0.51377;0.10987;0.38851;0.40195;3.25469;-3.6;-21.9;-31.74;173.903;-2.928;-3.264;1169;2021-02-11 20:50:37:447
0.79009;-0.13408;9.90481;0.50486;0.42944;9.78423;0.31879;-0.51377;0.10987;0.38851;0.40195;3.25469;-3.6;-21.9;-31.74;173.903;-2.928;-3.264;1199;2021-02-11 20:50:37:477
0.79009;-0.13408;9.90481;0.42309;0.39888;9.7894;0.31879;-0.51377;0.10987;0.38851;0.40195;3.25469;-10.44;-20.82;-30.9;156.295;-2.331;-2.475;1228;2021-02-11 20:50:37:506
0.82361;-0.18435;9.95749;0.42309;0.39888;9.7894;0.40943;-0.55;0.15286;0.38485;0.44227;3.44589;-10.44;-20.82;-30.9;156.295;-2.331;-2.475;1258;2021-02-11 20:50:37:536
0.82361;-0.18435;9.95749;0.42309;0.39888;9.7894;0.40943;-0.55;0.15286;0.38485;0.44227;3.44589;-10.44;-20.82;-30.9;156.295;-2.331;-2.475;1288;2021-02-11 20:50:37:566
0.82361;-0.18435;9.95749;0.34848;0.37511;9.79328;0.40943;-0.55;0.15286;0.38485;0.44227;3.44589;-10.44;-20.82;-30.9;156.295;-2.331;-2.475;1320;2021-02-11 20:50:37:598
0.82361;-0.18435;9.95749;0.34848;0.37511;9.79328;0.50468;-0.60501;0.17076;0.38485;0.44227;3.44589;-17.28;-16.62;-30.54;134.806;-2.192;-2.038;1348;2021-02-11 20:50:37:626
0.84276;-0.27773;9.94551;0.34848;0.37511;9.79328;0.50468;-0.60501;0.17076;0.39095;0.47159;3.61632;-17.28;-16.62;-30.54;134.806;-2.192;-2.038;1378;2021-02-11 20:50:37:656
0.84276;-0.27773;9.94551;0.34848;0.37511;9.79328;0.50468;-0.60501;0.17076;0.39095;0.47159;3.61632;-17.28;-16.62;-30.54;134.806;-2.192;-2.038;1408;2021-02-11 20:50:37:686
0.87149;-0.34716;9.96946;0.293;0.34788;9.7961;0.58789;-0.68793;0.17283;0.39095;0.47159;3.61632;-17.28;-16.62;-30.54;134.806;-2.192;-2.038;1438;2021-02-11 20:50:37:716
0.87149;-0.34716;9.96946;0.293;0.34788;9.7961;0.58789;-0.68793;0.17283;0.39095;0.47159;3.61632;-21.3;-9.42;-31.26;111.425;-2.033;-1.713;1468;2021-02-11 20:50:37:746
0.87149;-0.34716;9.96946;0.293;0.34788;9.7961;0.58789;-0.68793;0.17283;0.39767;0.48564;3.78981;-21.3;-9.42;-31.26;111.425;-2.033;-1.713;1499;2021-02-11 20:50:37:777
0.87149;-0.34716;9.96946;0.25097;0.3141;9.79841;0.58789;-0.68793;0.17283;0.39767;0.48564;3.78981;-21.3;-9.42;-31.26;111.425;-2.033;-1.713;1528;2021-02-11 20:50:37:806
0.89064;-0.42617;9.9527;0.25097;0.3141;9.79841;0.64677;-0.73205;0.15385;0.39767;0.48564;3.78981;-21.3;-9.42;-31.26;111.425;-2.033;-1.713;1559;2021-02-11 20:50:37:837
0.89064;-0.42617;9.9527;0.25097;0.3141;9.79841;0.64677;-0.73205;0.15385;0.39767;0.48564;3.78981;-23.88;-1.98;-32.4;92.359;-1.835;-1.467;1588;2021-02-11 20:50:37:866
0.89064;-0.42617;9.9527;0.25097;0.3141;9.79841;0.64677;-0.73205;0.15385;0.38851;0.48869;3.95902;-23.88;-1.98;-32.4;92.359;-1.835;-1.467;1618;2021-02-11 20:50:37:896
0.88107;-0.49799;9.93833;0.25438;0.21814;9.80092;0.65179;-0.70383;0.12733;0.38851;0.48869;3.95902;-23.88;-1.98;-32.4;92.359;-1.835;-1.467;1648;2021-02-11 20:50:37:926
0.88107;-0.49799;9.93833;0.25438;0.21814;9.80092;0.65179;-0.70383;0.12733;0.38851;0.48869;3.95902;-23.88;-1.98;-32.4;92.359;-1.835;-1.467;1678;2021-02-11 20:50:37:956
0.88107;-0.49799;9.93833;0.25438;0.21814;9.80092;0.65179;-0.70383;0.12733;0.38851;0.48869;3.95902;-20.46;7.08;-33.24;67.97;-1.275;-1.487;1708;2021-02-11 20:50:37:986
0.91698;-0.58419;9.93594;0.27023;0.12375;9.80215;0.65179;-0.70383;0.12733;0.38301;0.49297;4.1044;-20.46;7.08;-33.24;67.97;-1.275;-1.487;1738;2021-02-11 20:50:38:016
0.91698;-0.58419;9.93594;0.27023;0.12375;9.80215;0.69557;-0.71345;0.14936;0.38301;0.49297;4.1044;-20.46;7.08;-33.24;67.97;-1.275;-1.487;1768;2021-02-11 20:50:38:046
0.91698;-0.58419;9.93594;0.27023;0.12375;9.80215;0.69557;-0.71345;0.14936;0.38301;0.49297;4.1044;-20.46;7.08;-33.24;67.97;-1.275;-1.487;1798;2021-02-11 20:50:38:076
0.94092;-0.6608;9.96946;0.25974;0.03085;9.80316;0.69557;-0.71345;0.14936;0.38301;0.49297;4.1044;-14.52;13.68;-35.34;44.912;-0.18;-1.518;1828;2021-02-11 20:50:38:106
0.94092;-0.6608;9.96946;0.25974;0.03085;9.80316;0.63134;-0.65942;0.12893;0.37263;0.50702;4.25407;-14.52;13.68;-35.34;44.912;-0.18;-1.518;1858;2021-02-11 20:50:38:136
0.94092;-0.6608;9.96946;0.25974;0.03085;9.80316;0.63134;-0.65942;0.12893;0.37263;0.50702;4.25407;-14.52;13.68;-35.34;44.912;-0.18;-1.518;1887;2021-02-11 20:50:38:165
0.94092;-0.6608;9.96946;0.25974;0.03085;9.80316;0.63134;-0.65942;0.12893;0.37263;0.50702;4.25407;-14.52;13.68;-35.34;44.912;-0.18;-1.518;1918;2021-02-11 20:50:38:196
0.9481;-0.72544;9.98622;0.18962;-0.04596;9.80471;0.63134;-0.65942;0.12893;0.37263;0.50702;4.25407;-5.04;16.2;-35.7;15.206;0.269;-1.108;1948;2021-02-11 20:50:38:226
0.9481;-0.72544;9.98622;0.18962;-0.04596;9.80471;0.72917;-0.66704;0.18477;0.37751;0.52168;4.3964;-5.04;16.2;-35.7;15.206;0.269;-1.108;1978;2021-02-11 20:50:38:256
0.9481;-0.72544;9.98622;0.18962;-0.04596;9.80471;0.72917;-0.66704;0.18477;0.37751;0.52168;4.3964;-5.04;16.2;-35.7;15.206;0.269;-1.108;2008;2021-02-11 20:50:38:286
0.96965;-0.79487;9.96467;0.20677;-0.15115;9.8033;0.72917;-0.66704;0.18477;0.37751;0.52168;4.3964;-5.04;16.2;-35.7;15.206;0.269;-1.108;2038;2021-02-11 20:50:38:316
0.96965;-0.79487;9.96467;0.20677;-0.15115;9.8033;0.84131;-0.69707;0.19811;0.37751;0.52168;4.3964;3.9;14.7;-36.96;341.674;0.883;-1.208;2068;2021-02-11 20:50:38:346
0.96965;-0.79487;9.96467;0.20677;-0.15115;9.8033;0.84131;-0.69707;0.19811;0.38973;0.52901;4.51735;3.9;14.7;-36.96;341.674;0.883;-1.208;2099;2021-02-11 20:50:38:377
0.99838;-0.87628;9.97185;0.03297;-0.10685;9.80601;0.84131;-0.69707;0.19811;0.38973;0.52901;4.51735;3.9;14.7;-36.96;341.674;0.883;-1.208;2128;2021-02-11 20:50:38:406
0.99838;-0.87628;9.97185;0.03297;-0.10685;9.80601;1.00054;-0.83845;0.1823;0.38973;0.52901;4.51735;3.9;14.7;-36.96;341.674;0.883;-1.208;2158;2021-02-11 20:50:38:436
0.99838;-0.87628;9.97185;0.03297;-0.10685;9.80601;1.00054;-0.83845;0.1823;0.38973;0.52901;4.51735;10.92;7.8;-37.2;304.329;0.624;-0.193;2188;2021-02-11 20:50:38:466
1.00078;-0.92416;9.96227;0.02969;-0.12553;9.8058;1.00054;-0.83845;0.1823;0.40989;0.52657;4.63341;10.92;7.8;-37.2;304.329;0.624;-0.193;2219;2021-02-11 20:50:38:497
1.00078;-0.92416;9.96227;0.02969;-0.12553;9.8058;1.00054;-0.83845;0.1823;0.40989;0.52657;4.63341;10.92;7.8;-37.2;304.329;0.624;-0.193;2248;2021-02-11 20:50:38:526
1.00078;-0.92416;9.96227;0.02969;-0.12553;9.8058;1.03359;-0.86993;0.19684;0.40989;0.52657;4.63341;10.92;7.8;-37.2;304.329;0.624;-0.193;2277;2021-02-11 20:50:38:555
1.02951;-0.99359;9.98382;0.02969;-0.12553;9.8058;1.03359;-0.86993;0.19684;0.40989;0.52657;4.63341;14.04;-1.86;-34.62;260.158;0.733;-0.174;2308;2021-02-11 20:50:38:586
1.02951;-0.99359;9.98382;0.02296;-0.14712;9.80552;1.03359;-0.86993;0.19684;0.41294;0.51985;4.73848;14.04;-1.86;-34.62;260.158;0.733;-0.174;2338;2021-02-11 20:50:38:616
1.02951;-0.99359;9.98382;0.02296;-0.14712;9.80552;0.98005;-0.83283;0.20105;0.41294;0.51985;4.73848;14.04;-1.86;-34.62;260.158;0.733;-0.174;2369;2021-02-11 20:50:38:647
1.01035;-1.07021;10.04607;0.02296;-0.14712;9.80552;0.98005;-0.83283;0.20105;0.41294;0.51985;4.73848;14.04;-1.86;-34.62;260.158;0.733;-0.174;2398;2021-02-11 20:50:38:676
1.01035;-1.07021;10.04607;0.06396;-0.24675;9.80334;0.98005;-0.83283;0.20105;0.41294;0.51985;4.73848;11.7;-12.18;-34.38;223.565;1.442;-0.374;2428;2021-02-11 20:50:38:706
1.01035;-1.07021;10.04607;0.06396;-0.24675;9.80334;1.0675;-0.89021;0.20839;0.41417;0.52107;4.8295;11.7;-12.18;-34.38;223.565;1.442;-0.374;2458;2021-02-11 20:50:38:736
1.06063;-1.08697;10.02452;0.06396;-0.24675;9.80334;1.0675;-0.89021;0.20839;0.41417;0.52107;4.8295;11.7;-12.18;-34.38;223.565;1.442;-0.374;2488;2021-02-11 20:50:38:766
1.06063;-1.08697;10.02452;0.00578;-0.25771;9.80326;1.0675;-0.89021;0.20839;0.41417;0.52107;4.8295;11.7;-12.18;-34.38;223.565;1.442;-0.374;2518;2021-02-11 20:50:38:796
1.06063;-1.08697;10.02452;0.00578;-0.25771;9.80326;1.0675;-0.89021;0.20839;0.41417;0.52107;4.8295;5.28;-19.26;-32.28;194.2;1.506;-0.034;2548;2021-02-11 20:50:38:826
1.05345;-1.14922;10.02931;0.00578;-0.25771;9.80326;1.02687;-0.8349;0.20838;0.4105;0.52657;4.91197;5.28;-19.26;-32.28;194.2;1.506;-0.034;2581;2021-02-11 20:50:38:859
1.05345;-1.14922;10.02931;0.00578;-0.25771;9.80326;1.02687;-0.8349;0.20838;0.4105;0.52657;4.91197;5.28;-19.26;-32.28;194.2;1.506;-0.034;2607;2021-02-11 20:50:38:885
1.05345;-1.14922;10.02931;0.00444;-0.33696;9.80086;1.02687;-0.8349;0.20838;0.4105;0.52657;4.91197;5.28;-19.26;-32.28;194.2;1.506;-0.034;2637;2021-02-11 20:50:38:915
1.05345;-1.14922;10.02931;0.00444;-0.33696;9.80086;1.03591;-0.82628;0.21571;0.4105;0.52657;4.91197;-5.4;-22.44;-31.14;167.796;1.969;-0.026;2668;2021-02-11 20:50:38:946
1.05824;-1.21147;10.03171;0.00444;-0.33696;9.80086;1.03591;-0.82628;0.21571;0.41966;0.53878;4.97977;-5.4;-22.44;-31.14;167.796;1.969;-0.026;2698;2021-02-11 20:50:38:976
1.05824;-1.21147;10.03171;-0.00784;-0.39818;9.79856;1.03591;-0.82628;0.21571;0.41966;0.53878;4.97977;-5.4;-22.44;-31.14;167.796;1.969;-0.026;2728;2021-02-11 20:50:39:006
1.05824;-1.21147;10.03171;-0.00784;-0.39818;9.79856;1.06287;-0.81622;0.20602;0.41966;0.53878;4.97977;-5.4;-22.44;-31.14;167.796;1.969;-0.026;2758;2021-02-11 20:50:39:036
1.06781;-1.24259;10.04607;-0.00784;-0.39818;9.79856;1.06287;-0.81622;0.20602;0.41966;0.53878;4.97977;-15.84;-17.94;-30.84;140.214;2.327;0.046;2789;2021-02-11 20:50:39:067
1.06781;-1.24259;10.04607;-0.00784;-0.39818;9.79856;1.06287;-0.81622;0.20602;0.42944;0.5339;5.03536;-15.84;-17.94;-30.84;140.214;2.327;0.046;2817;2021-02-11 20:50:39:095
1.06781;-1.24259;10.04607;-0.04616;-0.41951;9.79756;1.06287;-0.81622;0.20602;0.42944;0.5339;5.03536;-15.84;-17.94;-30.84;140.214;2.327;0.046;2848;2021-02-11 20:50:39:126
1.0726;-1.28329;10.01973;-0.04616;-0.41951;9.79756;1.03582;-0.79104;0.2091;0.42944;0.5339;5.03536;-15.84;-17.94;-30.84;140.214;2.327;0.046;2879;2021-02-11 20:50:39:157
1.0726;-1.28329;10.01973;-0.04616;-0.41951;9.79756;1.03582;-0.79104;0.2091;0.42944;0.5339;5.03536;-22.08;-7.98;-31.8;112.901;2.452;0.27;2908;2021-02-11 20:50:39:186
1.0726;-1.28329;10.01973;0.17002;-0.67227;9.7821;1.03582;-0.79104;0.2091;0.44349;0.51496;5.08362;-22.08;-7.98;-31.8;112.901;2.452;0.27;2938;2021-02-11 20:50:39:216
1.0726;-1.28329;10.01973;0.17002;-0.67227;9.7821;0.91259;-0.60024;0.21702;0.44349;0.51496;5.08362;-22.08;-7.98;-31.8;112.901;2.452;0.27;2968;2021-02-11 20:50:39:246
1.05584;-1.3216;10.00537;0.17002;-0.67227;9.7821;0.91259;-0.60024;0.21702;0.44349;0.51496;5.08362;-22.08;-7.98;-31.8;112.901;2.452;0.27;2998;2021-02-11 20:50:39:276
1.05584;-1.3216;10.00537;0.2884;-0.84278;9.76611;0.91259;-0.60024;0.21702;0.44349;0.51496;5.08362;-21.84;4.92;-32.94;84.318;4.93;-1.691;3028;2021-02-11 20:50:39:306
1.05584;-1.3216;10.00537;0.2884;-0.84278;9.76611;0.91259;-0.60024;0.21702;0.44104;0.5003;5.11416;-21.84;4.92;-32.94;84.318;4.93;-1.691;3058;2021-02-11 20:50:39:336
1.075;-1.36709;9.99819;0.2884;-0.84278;9.76611;0.84954;-0.49711;0.2328;0.44104;0.5003;5.11416;-21.84;4.92;-32.94;84.318;4.93;-1.691;3088;2021-02-11 20:50:39:366
1.075;-1.36709;9.99819;0.26477;-0.9545;9.7565;0.84954;-0.49711;0.2328;0.44104;0.5003;5.11416;-21.84;4.92;-32.94;84.318;4.93;-1.691;3118;2021-02-11 20:50:39:396
1.075;-1.36709;9.99819;0.26477;-0.9545;9.7565;0.84954;-0.49711;0.2328;0.44104;0.5003;5.11416;-15.42;13.38;-34.26;55.724;5.586;-1.555;3148;2021-02-11 20:50:39:426
1.07979;-1.38145;9.95988;0.26477;-0.9545;9.7565;0.84954;-0.49711;0.2328;0.43982;0.49175;5.13249;-15.42;13.38;-34.26;55.724;5.586;-1.555;3178;2021-02-11 20:50:39:456
1.07979;-1.38145;9.95988;0.26477;-0.9545;9.7565;0.66259;-0.32059;0.22883;0.43982;0.49175;5.13249;-15.42;13.38;-34.26;55.724;5.586;-1.555;3209;2021-02-11 20:50:39:487
1.07979;-1.38145;9.95988;0.36282;-1.07409;9.7409;0.66259;-0.32059;0.22883;0.43982;0.49175;5.13249;-15.42;13.38;-34.26;55.724;5.586;-1.555;3238;2021-02-11 20:50:39:516
1.07979;-1.38145;9.95988;0.36282;-1.07409;9.7409;0.66259;-0.32059;0.22883;0.43982;0.49175;5.13249;-4.38;16.74;-36.48;11.603;6.288;-2.133;3268;2021-02-11 20:50:39:546
1.09415;-1.39582;10.01016;0.36282;-1.07409;9.7409;0.90608;-0.37551;0.24625;0.4386;0.48991;5.14654;-4.38;16.74;-36.48;11.603;6.288;-2.133;3298;2021-02-11 20:50:39:576
1.09415;-1.39582;10.01016;0.3312;-1.09087;9.74016;0.90608;-0.37551;0.24625;0.4386;0.48991;5.14654;-4.38;16.74;-36.48;11.603;6.288;-2.133;3328;2021-02-11 20:50:39:606
1.06542;-1.41737;9.9934;0.3312;-1.09087;9.74016;0.90608;-0.37551;0.24625;0.4386;0.48991;5.14654;-4.38;16.74;-36.48;11.603;6.288;-2.133;3358;2021-02-11 20:50:39:636
1.06542;-1.41737;9.9934;0.3312;-1.09087;9.74016;0.90608;-0.37551;0.24625;0.4386;0.48991;5.14654;6.18;13.02;-36.36;321.075;6.387;-1.948;3388;2021-02-11 20:50:39:666
1.06542;-1.41737;9.9934;0.33351;-1.10921;9.73801;0.7343;-0.30576;0.27933;0.45448;0.48564;5.15937;6.18;13.02;-36.36;321.075;6.387;-1.948;3418;2021-02-11 20:50:39:696
1.06542;-1.44849;10.00058;0.33351;-1.10921;9.73801;0.7343;-0.30576;0.27933;0.45448;0.48564;5.15937;6.18;13.02;-36.36;321.075;6.387;-1.948;3449;2021-02-11 20:50:39:727
1.06542;-1.44849;10.00058;0.33351;-1.10921;9.73801;0.7343;-0.30576;0.27933;0.45448;0.48564;5.15937;6.18;13.02;-36.36;321.075;6.387;-1.948;3477;2021-02-11 20:50:39:755
1.06542;-1.44849;10.00058;0.33351;-1.10921;9.73801;0.7343;-0.30576;0.27933;0.45448;0.48564;5.15937;13.74;4.44;-36.0;269.846;6.494;-1.962;3508;2021-02-11 20:50:39:786
1.08457;-1.43652;10.02213;0.13052;-1.03093;9.75144;0.94926;-0.42235;0.22281;0.47037;0.47403;5.16914;13.74;4.44;-36.0;269.846;6.494;-1.962;3538;2021-02-11 20:50:39:816
1.08457;-1.43652;10.02213;0.13052;-1.03093;9.75144;0.94926;-0.42235;0.22281;0.47037;0.47403;5.16914;13.74;4.44;-36.0;269.846;6.494;-1.962;3568;2021-02-11 20:50:39:846
1.08457;-1.43652;10.02213;0.13052;-1.03093;9.75144;0.94926;-0.42235;0.22281;0.47037;0.47403;5.16914;13.74;4.44;-36.0;269.846;6.494;-1.962;3598;2021-02-11 20:50:39:876
1.08457;-1.43652;10.02213;0.16603;-1.04746;9.74914;0.9353;-0.42976;0.20596;0.47037;0.47403;5.16914;13.38;-6.9;-35.16;231.861;6.132;-0.976;3628;2021-02-11 20:50:39:906
1.0726;-1.47483;9.99819;0.16603;-1.04746;9.74914;0.9353;-0.42976;0.20596;0.47647;0.45509;5.17953;13.38;-6.9;-35.16;231.861;6.132;-0.976;3658;2021-02-11 20:50:39:936
1.0726;-1.47483;9.99819;0.16603;-1.04746;9.74914;0.9353;-0.42976;0.20596;0.47647;0.45509;5.17953;13.38;-6.9;-35.16;231.861;6.132;-0.976;3688;2021-02-11 20:50:39:966
1.08457;-1.47243;9.96227;0.21037;-1.08694;9.74396;0.8742;-0.38549;0.21832;0.47647;0.45509;5.17953;13.38;-6.9;-35.16;231.861;6.132;-0.976;3718;2021-02-11 20:50:39:996
1.08457;-1.47243;9.96227;0.21037;-1.08694;9.74396;0.8742;-0.38549;0.21832;0.47647;0.45509;5.17953;7.2;-16.92;-33.3;200.58;6.364;-1.237;3749;2021-02-11 20:50:40:027
1.08457;-1.47243;9.96227;0.21037;-1.08694;9.74396;0.8742;-0.38549;0.21832;0.47586;0.44166;5.18747;7.2;-16.92;-33.3;200.58;6.364;-1.237;3777;2021-02-11 20:50:40:055
1.07979;-1.47483;9.95749;0.16756;-1.05821;9.74795;0.8742;-0.38549;0.21832;0.47586;0.44166;5.18747;7.2;-16.92;-33.3;200.58;6.364;-1.237;3808;2021-02-11 20:50:40:086
1.07979;-1.47483;9.95749;0.16756;-1.05821;9.74795;0.90749;-0.43624;0.21158;0.47586;0.44166;5.18747;7.2;-16.92;-33.3;200.58;6.364;-1.237;3839;2021-02-11 20:50:40:117
1.07979;-1.47483;9.95749;0.16756;-1.05821;9.74795;0.90749;-0.43624;0.21158;0.47586;0.44166;5.18747;-2.28;-21.3;-32.16;200.58;6.364;-1.237;3868;2021-02-11 20:50:40:146
1.07979;-1.47483;9.95749;0.16756;-1.05821;9.74795;0.90749;-0.43624;0.21158;0.47525;0.44104;5.19113;-2.28;-21.3;-32.16;200.58;6.364;-1.237;3898;2021-02-11 20:50:40:176
1.06542;-1.49877;9.98382;0.21975;-1.1075;9.74143;0.90749;-0.43624;0.21158;0.47525;0.44104;5.19113;-2.28;-21.3;-32.16;200.58;6.364;-1.237;3928;2021-02-11 20:50:40:206
1.06542;-1.49877;9.98382;0.21975;-1.1075;9.74143;0.8736;-0.3945;0.25535;0.47525;0.44104;5.19113;-2.28;-21.3;-32.16;200.58;6.364;-1.237;3958;2021-02-11 20:50:40:236
1.06542;-1.49877;9.98382;0.21975;-1.1075;9.74143;0.8736;-0.3945;0.25535;0.47525;0.44104;5.19113;-13.14;-18.66;-29.88;151.079;6.484;-1.292;3988;2021-02-11 20:50:40:266
1.05105;-1.49638;9.95509;0.14765;-1.06542;9.74749;0.8736;-0.3945;0.25535;0.48258;0.44349;5.18869;-13.14;-18.66;-29.88;151.079;6.484;-1.292;4018;2021-02-11 20:50:40:296
1.05105;-1.49638;9.95509;0.14765;-1.06542;9.74749;0.9255;-0.43187;0.20933;0.48258;0.44349;5.18869;-13.14;-18.66;-29.88;151.079;6.484;-1.292;4048;2021-02-11 20:50:40:326
1.05105;-1.49638;9.95509;0.14765;-1.06542;9.74749;0.9255;-0.43187;0.20933;0.48258;0.44349;5.18869;-13.14;-18.66;-29.88;151.079;6.484;-1.292;4078;2021-02-11 20:50:40:356
1.05105;-1.49638;9.95509;0.14765;-1.06542;9.74749;0.9255;-0.43187;0.20933;0.48258;0.44349;5.18869;-20.88;-9.36;-30.12;120.788;6.237;-0.868;4107;2021-02-11 20:50:40:385
1.07979;-1.49638;9.99819;0.1443;-1.04127;9.75015;0.92455;-0.4631;0.22138;0.49419;0.43371;5.18014;-20.88;-9.36;-30.12;120.788;6.237;-0.868;4137;2021-02-11 20:50:40:415
1.07979;-1.49638;9.99819;0.1443;-1.04127;9.75015;0.92455;-0.4631;0.22138;0.49419;0.43371;5.18014;-20.88;-9.36;-30.12;120.788;6.237;-0.868;4168;2021-02-11 20:50:40:446
1.07979;-1.49638;9.99819;0.1443;-1.04127;9.75015;0.92455;-0.4631;0.22138;0.49419;0.43371;5.18014;-20.88;-9.36;-30.12;120.788;6.237;-0.868;4200;2021-02-11 20:50:40:478
1.04866;-1.4844;9.94073;0.16131;-1.03455;9.75059;0.88491;-0.45855;0.19749;0.49419;0.43371;5.18014;-22.8;3.18;-31.74;91.102;6.056;-0.948;4229;2021-02-11 20:50:40:507
1.04866;-1.4844;9.94073;0.16131;-1.03455;9.75059;0.88491;-0.45855;0.19749;0.50213;0.41905;5.1667;-22.8;3.18;-31.74;91.102;6.056;-0.948;4259;2021-02-11 20:50:40:537
1.04866;-1.4844;9.94073;0.16131;-1.03455;9.75059;0.88491;-0.45855;0.19749;0.50213;0.41905;5.1667;-22.8;3.18;-31.74;91.102;6.056;-0.948;4288;2021-02-11 20:50:40:566
1.04627;-1.4868;9.93833;0.30221;-1.11314;9.73858;0.88491;-0.45855;0.19749;0.50213;0.41905;5.1667;-22.8;3.18;-31.74;91.102;6.056;-0.948;4318;2021-02-11 20:50:40:596
1.04627;-1.4868;9.93833;0.30221;-1.11314;9.73858;0.77948;-0.36852;0.22036;0.50213;0.41905;5.1667;-16.62;13.02;-33.6;60.549;6.518;-1.777;4348;2021-02-11 20:50:40:626
1.04627;-1.4868;9.93833;0.30221;-1.11314;9.73858;0.77948;-0.36852;0.22036;0.50274;0.3989;5.14837;-16.62;13.02;-33.6;60.549;6.518;-1.777;4378;2021-02-11 20:50:40:656
1.05345;-1.46765;9.90721;0.22763;-1.09437;9.74274;0.77948;-0.36852;0.22036;0.50274;0.3989;5.14837;-16.62;13.02;-33.6;60.549;6.518;-1.777;4412;2021-02-11 20:50:40:690
1.05345;-1.46765;9.90721;0.22763;-1.09437;9.74274;0.82218;-0.37915;0.19752;0.50274;0.3989;5.14837;-16.62;13.02;-33.6;60.549;6.518;-1.777;4438;2021-02-11 20:50:40:716
1.05345;-1.46765;9.90721;0.22763;-1.09437;9.74274;0.82218;-0.37915;0.19752;0.50274;0.3989;5.14837;-6.54;18.36;-35.1;23.874;6.407;-1.338;4467;2021-02-11 20:50:40:745
1.05345;-1.46765;9.90721;0.22763;-1.09437;9.74274;0.82218;-0.37915;0.19752;0.49297;0.39645;5.12394;-6.54;18.36;-35.1;23.874;6.407;-1.338;4498;2021-02-11 20:50:40:776
1.04627;-1.46046;9.93594;0.22445;-1.08039;9.74437;0.82218;-0.37915;0.19752;0.49297;0.39645;5.12394;-6.54;18.36;-35.1;23.874;6.407;-1.338;4528;2021-02-11 20:50:40:806
1.04627;-1.46046;9.93594;0.22445;-1.08039;9.74437;0.8392;-0.36664;0.22949;0.49297;0.39645;5.12394;-6.54;18.36;-35.1;23.874;6.407;-1.338;4557;2021-02-11 20:50:40:835
1.04627;-1.46046;9.93594;0.22445;-1.08039;9.74437;0.8392;-0.36664;0.22949;0.49297;0.39645;5.12394;4.14;15.96;-34.08;338.546;6.325;-1.32;4588;2021-02-11 20:50:40:866
1.06303;-1.44131;10.00058;0.22032;-1.06716;9.74592;0.8392;-0.36664;0.22949;0.48808;0.39584;5.09828;4.14;15.96;-34.08;338.546;6.325;-1.32;4617;2021-02-11 20:50:40:895
1.06303;-1.44131;10.00058;0.22032;-1.06716;9.74592;0.82228;-0.38128;0.24927;0.48808;0.39584;5.09828;4.14;15.96;-34.08;338.546;6.325;-1.32;4648;2021-02-11 20:50:40:926
1.06303;-1.44131;10.00058;0.22032;-1.06716;9.74592;0.82228;-0.38128;0.24927;0.48808;0.39584;5.09828;4.14;15.96;-34.08;338.546;6.325;-1.32;4677;2021-02-11 20:50:40:955
1.02472;-1.44131;10.01255;0.20655;-1.0395;9.74921;0.82228;-0.38128;0.24927;0.48808;0.39584;5.09828;10.92;6.6;-36.12;284.566;6.247;-1.295;4711;2021-02-11 20:50:40:989
1.02472;-1.44131;10.01255;0.20655;-1.0395;9.74921;0.81849;-0.40945;0.22681;0.50457;0.39828;5.06713;10.92;6.6;-36.12;284.566;6.247;-1.295;4738;2021-02-11 20:50:41:016
1.02472;-1.44131;10.01255;0.20655;-1.0395;9.74921;0.81849;-0.40945;0.22681;0.50457;0.39828;5.06713;10.92;6.6;-36.12;284.566;6.247;-1.295;4768;2021-02-11 20:50:41:046
1.02472;-1.44131;10.01255;0.20655;-1.0395;9.74921;0.81849;-0.40945;0.22681;0.50457;0.39828;5.06713;10.92;6.6;-36.12;284.566;6.247;-1.295;4798;2021-02-11 20:50:41:076
1.01035;-1.41976;9.96946;0.347;-1.08384;9.74039;0.70285;-0.35066;0.27049;0.50457;0.39828;5.06713;13.08;-4.8;-35.82;238.071;6.345;-2.04;4828;2021-02-11 20:50:41:106
1.01035;-1.41976;9.96946;0.347;-1.08384;9.74039;0.70285;-0.35066;0.27049;0.50519;0.38973;5.05674;13.08;-4.8;-35.82;238.071;6.345;-2.04;4858;2021-02-11 20:50:41:136
1.01035;-1.41976;9.96946;0.347;-1.08384;9.74039;0.70285;-0.35066;0.27049;0.50519;0.38973;5.05674;13.08;-4.8;-35.82;238.071;6.345;-2.04;4888;2021-02-11 20:50:41:166
1.05105;-1.39821;9.97664;0.25168;-1.04475;9.74759;0.70285;-0.35066;0.27049;0.50519;0.38973;5.05674;13.08;-4.8;-35.82;238.071;6.345;-2.04;4918;2021-02-11 20:50:41:196
1.05105;-1.39821;9.97664;0.25168;-1.04475;9.74759;0.82559;-0.34005;0.2377;0.50519;0.38973;5.05674;9.48;-14.04;-34.38;209.411;6.116;-1.479;4949;2021-02-11 20:50:41:227
1.05105;-1.39821;9.97664;0.25168;-1.04475;9.74759;0.82559;-0.34005;0.2377;0.49052;0.36041;5.00115;9.48;-14.04;-34.38;209.411;6.116;-1.479;4977;2021-02-11 20:50:41:255
1.05105;-1.39821;9.97664;0.25168;-1.04475;9.74759;0.82559;-0.34005;0.2377;0.49052;0.36041;5.00115;9.48;-14.04;-34.38;209.411;6.116;-1.479;5008;2021-02-11 20:50:41:286
1.1157;-1.33357;9.96706;0.18668;-0.97576;9.7562;1.00793;-0.38281;0.19119;0.49052;0.36041;5.00115;9.48;-14.04;-34.38;209.411;6.116;-1.479;5037;2021-02-11 20:50:41:315
1.1157;-1.33357;9.96706;0.18668;-0.97576;9.7562;1.00793;-0.38281;0.19119;0.49052;0.36041;5.00115;0.66;-19.8;-31.98;183.995;5.71;-1.096;5068;2021-02-11 20:50:41:346
1.1157;-1.33357;9.96706;0.18668;-0.97576;9.7562;1.00793;-0.38281;0.19119;0.47159;0.3207;4.83011;0.66;-19.8;-31.98;183.995;5.71;-1.096;5098;2021-02-11 20:50:41:376
1.1133;-1.23301;9.94791;-0.00981;-0.74855;9.77804;1.00793;-0.38281;0.19119;0.47159;0.3207;4.83011;0.66;-19.8;-31.98;183.995;5.71;-1.096;5128;2021-02-11 20:50:41:406
1.1133;-1.23301;9.94791;-0.00981;-0.74855;9.77804;1.14143;-0.50558;0.14756;0.47159;0.3207;4.83011;0.66;-19.8;-31.98;183.995;5.71;-1.096;5158;2021-02-11 20:50:41:436
1.1133;-1.23301;9.94791;-0.00981;-0.74855;9.77804;1.14143;-0.50558;0.14756;0.47159;0.3207;4.83011;-10.14;-19.32;-30.0;154.716;4.378;0.057;5188;2021-02-11 20:50:41:466
1.13725;-1.10612;9.83778;0.06503;-0.65436;9.78458;1.14143;-0.50558;0.14756;0.45326;0.30543;4.58943;-10.14;-19.32;-30.0;154.716;4.378;0.057;5217;2021-02-11 20:50:41:495
1.13725;-1.10612;9.83778;0.06503;-0.65436;9.78458;1.0248;-0.4884;0.15884;0.45326;0.30543;4.58943;-10.14;-19.32;-30.0;154.716;4.378;0.057;5247;2021-02-11 20:50:41:525
1.13725;-1.10612;9.83778;0.06503;-0.65436;9.78458;1.0248;-0.4884;0.15884;0.45326;0.30543;4.58943;-10.14;-19.32;-30.0;154.716;4.378;0.057;5278;2021-02-11 20:50:41:556
1.13725;-1.10612;9.83778;0.06503;-0.65436;9.78458;1.0248;-0.4884;0.15884;0.45326;0.30543;4.58943;-19.62;-12.78;-29.82;127.113;3.826;-0.381;5308;2021-02-11 20:50:41:586
1.09894;-0.99599;9.88566;0.07401;-0.50749;9.79323;1.01744;-0.48123;0.07203;0.44715;0.29871;4.32798;-19.62;-12.78;-29.82;127.113;3.826;-0.381;5338;2021-02-11 20:50:41:616
1.09894;-0.99599;9.88566;0.07401;-0.50749;9.79323;1.01744;-0.48123;0.07203;0.44715;0.29871;4.32798;-19.62;-12.78;-29.82;127.113;3.826;-0.381;5367;2021-02-11 20:50:41:645
1.09894;-0.99599;9.88566;0.07401;-0.50749;9.79323;1.01744;-0.48123;0.07203;0.44715;0.29871;4.32798;-19.62;-12.78;-29.82;127.113;3.826;-0.381;5397;2021-02-11 20:50:41:675
1.08218;-0.84036;9.84017;0.12841;-0.38164;9.79838;1.01744;-0.48123;0.07203;0.44715;0.29871;4.32798;-24.12;-3.0;-30.9;100.133;2.23;-0.751;5429;2021-02-11 20:50:41:707
1.08218;-0.84036;9.84017;0.12841;-0.38164;9.79838;0.93731;-0.44442;0.16794;0.43921;0.30299;4.02133;-24.12;-3.0;-30.9;100.133;2.23;-0.751;5458;2021-02-11 20:50:41:736
1.08218;-0.84036;9.84017;0.12841;-0.38164;9.79838;0.93731;-0.44442;0.16794;0.43921;0.30299;4.02133;-24.12;-3.0;-30.9;100.133;2.23;-0.751;5488;2021-02-11 20:50:41:766
1.03669;-0.68953;9.91678;0.18501;-0.26567;9.80131;0.93731;-0.44442;0.16794;0.43921;0.30299;4.02133;-24.12;-3.0;-30.9;100.133;2.23;-0.751;5518;2021-02-11 20:50:41:796
1.03669;-0.68953;9.91678;0.18501;-0.26567;9.80131;0.85712;-0.41021;0.084;0.43921;0.30299;4.02133;-21.42;7.44;-32.76;73.35;1.552;-1.081;5548;2021-02-11 20:50:41:826
1.03669;-0.68953;9.91678;0.18501;-0.26567;9.80131;0.85712;-0.41021;0.084;0.41966;0.2926;3.70123;-21.42;7.44;-32.76;73.35;1.552;-1.081;5578;2021-02-11 20:50:41:856
1.01514;-0.52433;9.88087;0.24227;-0.15376;9.80245;0.85712;-0.41021;0.084;0.41966;0.2926;3.70123;-21.42;7.44;-32.76;73.35;1.552;-1.081;5609;2021-02-11 20:50:41:887
1.01514;-0.52433;9.88087;0.24227;-0.15376;9.80245;0.77064;-0.34922;0.1191;0.41966;0.2926;3.70123;-21.42;7.44;-32.76;73.35;1.552;-1.081;5638;2021-02-11 20:50:41:916
1.01514;-0.52433;9.88087;0.24227;-0.15376;9.80245;0.77064;-0.34922;0.1191;0.41966;0.2926;3.70123;-17.16;13.92;-33.72;50.202;0.898;-1.416;5667;2021-02-11 20:50:41:945
1.01514;-0.52433;9.88087;0.24227;-0.15376;9.80245;0.77064;-0.34922;0.1191;0.38729;0.2755;3.39519;-17.16;13.92;-33.72;50.202;0.898;-1.416;5698;2021-02-11 20:50:41:976
1.02472;-0.38307;9.88326;0.30324;-0.05214;9.80182;0.77064;-0.34922;0.1191;0.38729;0.2755;3.39519;-17.16;13.92;-33.72;50.202;0.898;-1.416;5728;2021-02-11 20:50:42:006
1.02472;-0.38307;9.88326;0.30324;-0.05214;9.80182;0.69466;-0.31028;0.08176;0.38729;0.2755;3.39519;-17.16;13.92;-33.72;50.202;0.898;-1.416;5758;2021-02-11 20:50:42:036
1.02472;-0.38307;9.88326;0.30324;-0.05214;9.80182;0.69466;-0.31028;0.08176;0.38729;0.2755;3.39519;-10.26;17.46;-34.98;27.93;0.305;-1.772;5788;2021-02-11 20:50:42:066
1.02472;-0.38307;9.88326;0.30324;-0.05214;9.80182;0.69466;-0.31028;0.08176;0.38729;0.2755;3.39519;-10.26;17.46;-34.98;27.93;0.305;-1.772;5817;2021-02-11 20:50:42:095
0.98881;-0.2466;9.87608;0.35944;0.02411;9.80003;0.62886;-0.27342;0.05252;0.32681;0.26267;3.0641;-10.26;17.46;-34.98;27.93;0.305;-1.772;5848;2021-02-11 20:50:42:126
0.98881;-0.2466;9.87608;0.35944;0.02411;9.80003;0.62886;-0.27342;0.05252;0.32681;0.26267;3.0641;-10.26;17.46;-34.98;27.93;0.305;-1.772;5878;2021-02-11 20:50:42:156
0.9481;-0.17238;9.83299;0.39978;0.07424;9.79822;0.62886;-0.27342;0.05252;0.32681;0.26267;3.0641;-2.46;17.82;-35.82;2.15;-0.141;-2.101;5907;2021-02-11 20:50:42:185
0.9481;-0.17238;9.83299;0.39978;0.07424;9.79822;0.62886;-0.27342;0.05252;0.32681;0.26267;3.0641;-2.46;17.82;-35.82;2.15;-0.141;-2.101;5939;2021-02-11 20:50:42:217
0.9481;-0.17238;9.83299;0.39978;0.07424;9.79822;0.51943;-0.20334;0.08076;0.24801;0.26084;2.7043;-2.46;17.82;-35.82;2.15;-0.141;-2.101;5967;2021-02-11 20:50:42:245
0.9481;-0.17238;9.83299;0.39978;0.07424;9.79822;0.51943;-0.20334;0.08076;0.24801;0.26084;2.7043;-2.46;17.82;-35.82;2.15;-0.141;-2.101;5998;2021-02-11 20:50:42:276
0.91698;-0.06464;9.87369;0.41576;0.10009;9.79732;0.51943;-0.20334;0.08076;0.24801;0.26084;2.7043;4.38;15.42;-36.72;340.102;-0.585;-2.43;6028;2021-02-11 20:50:42:306
0.91698;-0.06464;9.87369;0.41576;0.10009;9.79732;0.50741;-0.16289;0.03816;0.24801;0.26084;2.7043;4.38;15.42;-36.72;340.102;-0.585;-2.43;6058;2021-02-11 20:50:42:336
0.91698;-0.06464;9.87369;0.41576;0.10009;9.79732;0.50741;-0.16289;0.03816;0.18692;0.26695;2.44163;4.38;15.42;-36.72;340.102;-0.585;-2.43;6088;2021-02-11 20:50:42:366
0.9074;-0.02155;9.86411;0.41442;0.10939;9.79728;0.50741;-0.16289;0.03816;0.18692;0.26695;2.44163;4.38;15.42;-36.72;340.102;-0.585;-2.43;6117;2021-02-11 20:50:42:395
0.9074;-0.02155;9.86411;0.41442;0.10939;9.79728;0.49844;-0.09147;0.06193;0.18692;0.26695;2.44163;9.42;11.7;-36.48;340.102;-0.585;-2.43;6147;2021-02-11 20:50:42:425
0.9074;-0.02155;9.86411;0.41442;0.10939;9.79728;0.49844;-0.09147;0.06193;0.18692;0.26695;2.44163;9.42;11.7;-36.48;340.102;-0.585;-2.43;6178;2021-02-11 20:50:42:456
0.89064;0.05746;9.8282;0.40681;0.11123;9.79758;0.49844;-0.09147;0.06193;0.12706;0.26512;2.15697;9.42;11.7;-36.48;340.102;-0.585;-2.43;6208;2021-02-11 20:50:42:486
0.89064;0.05746;9.8282;0.40681;0.11123;9.79758;0.49844;-0.09147;0.06193;0.12706;0.26512;2.15697;9.42;11.7;-36.48;340.102;-0.585;-2.43;6238;2021-02-11 20:50:42:516
0.89064;0.05746;9.8282;0.40681;0.11123;9.79758;0.4755;-0.00728;0.07837;0.12706;0.26512;2.15697;12.24;8.28;-35.7;301.928;-0.65;-2.378;6268;2021-02-11 20:50:42:546
0.89064;0.05746;9.8282;0.40681;0.11123;9.79758;0.4755;-0.00728;0.07837;0.12706;0.26512;2.15697;12.24;8.28;-35.7;301.928;-0.65;-2.378;6298;2021-02-11 20:50:42:576
0.89064;0.13408;9.83538;0.39966;0.1146;9.79783;0.4755;-0.00728;0.07837;0.08002;0.24312;1.86558;12.24;8.28;-35.7;301.928;-0.65;-2.378;6329;2021-02-11 20:50:42:607
0.89064;0.13408;9.83538;0.39966;0.1146;9.79783;0.46312;0.03867;0.08792;0.08002;0.24312;1.86558;12.24;8.28;-35.7;301.928;-0.65;-2.378;6358;2021-02-11 20:50:42:636
0.89064;0.13408;9.83538;0.39966;0.1146;9.79783;0.46312;0.03867;0.08792;0.08002;0.24312;1.86558;14.82;3.24;-35.46;281.707;-0.67;-2.336;6389;2021-02-11 20:50:42:667
0.85234;0.18435;9.87369;0.40767;0.1179;9.79746;0.46312;0.03867;0.08792;0.08002;0.24312;1.86558;14.82;3.24;-35.46;281.707;-0.67;-2.336;6418;2021-02-11 20:50:42:696
0.85234;0.18435;9.87369;0.40767;0.1179;9.79746;0.41582;0.09274;0.03354;0.03787;0.19303;1.59802;14.82;3.24;-35.46;281.707;-0.67;-2.336;6449;2021-02-11 20:50:42:727
0.85234;0.18435;9.87369;0.40767;0.1179;9.79746;0.41582;0.09274;0.03354;0.03787;0.19303;1.59802;14.82;3.24;-35.46;281.707;-0.67;-2.336;6478;2021-02-11 20:50:42:756
0.84994;0.25139;9.89045;0.44089;0.11668;9.79604;0.41582;0.09274;0.03354;0.03787;0.19303;1.59802;15.42;-0.42;-34.74;271.439;-0.689;-2.383;6508;2021-02-11 20:50:42:786
0.84994;0.25139;9.89045;0.44089;0.11668;9.79604;0.41582;0.09274;0.03354;0.03787;0.19303;1.59802;15.42;-0.42;-34.74;271.439;-0.689;-2.383;6538;2021-02-11 20:50:42:816
0.84994;0.25139;9.89045;0.44089;0.11668;9.79604;0.35995;0.14574;0.02829;-6.1E-4;0.11973;1.31397;15.42;-0.42;-34.74;271.439;-0.689;-2.383;6568;2021-02-11 20:50:42:846
0.84994;0.25139;9.89045;0.44089;0.11668;9.79604;0.35995;0.14574;0.02829;-6.1E-4;0.11973;1.31397;15.42;-0.42;-34.74;271.439;-0.689;-2.383;6598;2021-02-11 20:50:42:876
0.82121;0.27054;9.8258;0.49889;0.11233;9.79331;0.35995;0.14574;0.02829;-6.1E-4;0.11973;1.31397;15.96;-3.0;-34.74;261.644;-0.656;-2.916;6628;2021-02-11 20:50:42:906
0.82121;0.27054;9.8258;0.49889;0.11233;9.79331;0.29385;0.16605;0.07239;-6.1E-4;0.11973;1.31397;15.96;-3.0;-34.74;261.644;-0.656;-2.916;6658;2021-02-11 20:50:42:936
0.82121;0.27054;9.8258;0.49889;0.11233;9.79331;0.29385;0.16605;0.07239;-0.02993;0.03299;1.03114;15.96;-3.0;-34.74;261.644;-0.656;-2.916;6688;2021-02-11 20:50:42:966
0.81163;0.30406;9.82102;0.58123;0.1035;9.78886;0.29385;0.16605;0.07239;-0.02993;0.03299;1.03114;15.96;-3.0;-34.74;261.644;-0.656;-2.916;6718;2021-02-11 20:50:42:996
0.81163;0.30406;9.82102;0.58123;0.1035;9.78886;0.18407;0.22224;0.0773;-0.02993;0.03299;1.03114;15.48;-5.16;-34.86;254.773;-0.605;-3.398;6748;2021-02-11 20:50:43:026
0.81163;0.30406;9.82102;0.58123;0.1035;9.78886;0.18407;0.22224;0.0773;-0.02993;0.03299;1.03114;15.48;-5.16;-34.86;254.773;-0.605;-3.398;6779;2021-02-11 20:50:43:057
0.80206;0.32082;9.85932;0.66186;0.10723;9.7837;0.18407;0.22224;0.0773;-0.03971;-0.04215;0.77397;15.48;-5.16;-34.86;254.773;-0.605;-3.398;6808;2021-02-11 20:50:43:086
0.80206;0.32082;9.85932;0.66186;0.10723;9.7837;0.18407;0.22224;0.0773;-0.03971;-0.04215;0.77397;15.48;-5.16;-34.86;254.773;-0.605;-3.398;6839;2021-02-11 20:50:43:117
0.80206;0.32082;9.85932;0.66186;0.10723;9.7837;0.11223;0.21378;0.10965;-0.03971;-0.04215;0.77397;14.04;-7.26;-33.12;247.677;-0.626;-3.87;6868;2021-02-11 20:50:43:146
0.80206;0.32082;9.85932;0.66186;0.10723;9.7837;0.11223;0.21378;0.10965;-0.03971;-0.04215;0.77397;14.04;-7.26;-33.12;247.677;-0.626;-3.87;6897;2021-02-11 20:50:43:175
0.80445;0.33519;9.89284;0.76877;0.09896;9.77597;0.11223;0.21378;0.10965;-0.02932;-0.10385;0.49969;14.04;-7.26;-33.12;247.677;-0.626;-3.87;6928;2021-02-11 20:50:43:206
0.80445;0.33519;9.89284;0.76877;0.09896;9.77597;-0.01834;0.2384;0.14184;-0.02932;-0.10385;0.49969;14.04;-7.26;-33.12;247.677;-0.626;-3.87;6958;2021-02-11 20:50:43:236
0.80445;0.33519;9.89284;0.76877;0.09896;9.77597;-0.01834;0.2384;0.14184;-0.02932;-0.10385;0.49969;13.68;-8.76;-34.8;242.596;-0.578;-4.496;6988;2021-02-11 20:50:43:266
0.79727;0.33758;9.89763;0.87046;0.11723;9.76724;-0.01834;0.2384;0.14184;-0.02932;-0.10385;0.49969;13.68;-8.76;-34.8;242.596;-0.578;-4.496;7018;2021-02-11 20:50:43:296
0.79727;0.33758;9.89763;0.87046;0.11723;9.76724;-0.11357;0.20329;0.17698;0.00428;-0.12828;0.22846;13.68;-8.76;-34.8;242.596;-0.578;-4.496;7048;2021-02-11 20:50:43:326
0.79727;0.33758;9.89763;0.87046;0.11723;9.76724;-0.11357;0.20329;0.17698;0.00428;-0.12828;0.22846;13.68;-8.76;-34.8;242.596;-0.578;-4.496;7078;2021-02-11 20:50:43:356
0.79966;0.33279;9.93833;0.95045;0.17428;9.75893;-0.11357;0.20329;0.17698;0.00428;-0.12828;0.22846;12.84;-8.88;-34.98;241.835;-0.685;-5.093;7108;2021-02-11 20:50:43:386
0.79966;0.33279;9.93833;0.95045;0.17428;9.75893;-0.11357;0.20329;0.17698;0.00428;-0.12828;0.22846;12.84;-8.88;-34.98;241.835;-0.685;-5.093;7138;2021-02-11 20:50:43:416
0.79966;0.33279;9.93833;0.95045;0.17428;9.75893;-0.18244;0.12871;0.17019;0.04032;-0.11484;-0.01649;12.84;-8.88;-34.98;241.835;-0.685;-5.093;7168;2021-02-11 20:50:43:446
0.79966;0.33279;9.93833;0.95045;0.17428;9.75893;-0.18244;0.12871;0.17019;0.04032;-0.11484;-0.01649;12.84;-8.88;-34.98;241.835;-0.685;-5.093;7198;2021-02-11 20:50:43:476
0.77572;0.33758;9.90721;0.99091;0.25582;9.7531;-0.18244;0.12871;0.17019;0.04032;-0.11484;-0.01649;12.84;-9.48;-35.46;243.75;-1.495;-5.801;7228;2021-02-11 20:50:43:506
0.77572;0.33758;9.90721;0.99091;0.25582;9.7531;-0.19694;0.04433;0.16267;0.04032;-0.11484;-0.01649;12.84;-9.48;-35.46;243.75;-1.495;-5.801;7258;2021-02-11 20:50:43:536
0.77572;0.33758;9.90721;0.99091;0.25582;9.7531;-0.19694;0.04433;0.16267;0.07025;-0.06353;-0.27367;12.84;-9.48;-35.46;243.75;-1.495;-5.801;7289;2021-02-11 20:50:43:567
0.79488;0.32801;9.89284;0.98633;0.34979;9.75065;-0.19694;0.04433;0.16267;0.07025;-0.06353;-0.27367;12.84;-9.48;-35.46;243.75;-1.495;-5.801;7318;2021-02-11 20:50:43:596
0.79488;0.32801;9.89284;0.98633;0.34979;9.75065;-0.16646;-0.05426;0.15187;0.07025;-0.06353;-0.27367;11.88;-10.2;-35.58;240.627;-2.044;-5.776;7348;2021-02-11 20:50:43:626
0.79488;0.32801;9.89284;0.98633;0.34979;9.75065;-0.16646;-0.05426;0.15187;0.07025;-0.06353;-0.27367;11.88;-10.2;-35.58;240.627;-2.044;-5.776;7378;2021-02-11 20:50:43:656
0.77333;0.3304;9.87848;0.93682;0.4396;9.7519;-0.16646;-0.05426;0.15187;0.06842;0.00611;-0.51435;11.88;-10.2;-35.58;240.627;-2.044;-5.776;7407;2021-02-11 20:50:43:685
0.77333;0.3304;9.87848;0.93682;0.4396;9.7519;-0.16646;-0.05426;0.15187;0.06842;0.00611;-0.51435;11.88;-10.2;-35.58;240.627;-2.044;-5.776;7437;2021-02-11 20:50:43:715
0.77333;0.3304;9.87848;0.93682;0.4396;9.7519;-0.12226;-0.15292;0.0984;0.06842;0.00611;-0.51435;12.36;-9.66;-36.0;241.27;-2.569;-5.487;7469;2021-02-11 20:50:43:747
0.7829;0.31364;9.84975;0.93682;0.4396;9.7519;-0.12226;-0.15292;0.0984;0.06842;0.00611;-0.51435;12.36;-9.66;-36.0;241.27;-2.569;-5.487;7498;2021-02-11 20:50:43:776
0.7829;0.31364;9.84975;0.84146;0.50111;9.75762;-0.12226;-0.15292;0.0984;0.02993;0.06536;-0.72326;12.36;-9.66;-36.0;241.27;-2.569;-5.487;7528;2021-02-11 20:50:43:806
0.7829;0.31364;9.84975;0.84146;0.50111;9.75762;-6.3E-4;-0.20549;0.07446;0.02993;0.06536;-0.72326;12.36;-9.66;-36.0;241.27;-2.569;-5.487;7558;2021-02-11 20:50:43:836
0.78051;0.30167;9.80665;0.84146;0.50111;9.75762;-6.3E-4;-0.20549;0.07446;0.02993;0.06536;-0.72326;12.9;-8.76;-35.64;245.795;-2.929;-4.929;7588;2021-02-11 20:50:43:866
0.78051;0.30167;9.80665;0.72518;0.50916;9.76654;-6.3E-4;-0.20549;0.07446;0.02993;0.06536;-0.72326;12.9;-8.76;-35.64;245.795;-2.929;-4.929;7618;2021-02-11 20:50:43:896
0.78051;0.30167;9.80665;0.72518;0.50916;9.76654;0.08962;-0.20569;0.0554;-0.04826;0.09041;-0.93096;12.9;-8.76;-35.64;245.795;-2.929;-4.929;7648;2021-02-11 20:50:43:926
0.78051;0.30167;9.80665;0.72518;0.50916;9.76654;0.08962;-0.20569;0.0554;-0.04826;0.09041;-0.93096;12.9;-8.76;-35.64;245.795;-2.929;-4.929;7678;2021-02-11 20:50:43:956
0.7829;0.27533;9.82102;0.62617;0.45645;9.77599;0.08962;-0.20569;0.0554;-0.04826;0.09041;-0.93096;14.16;-7.74;-35.16;249.373;-2.976;-4.247;7708;2021-02-11 20:50:43:986
0.7829;0.27533;9.82102;0.62617;0.45645;9.77599;0.08962;-0.20569;0.0554;-0.04826;0.09041;-0.93096;14.16;-7.74;-35.16;249.373;-2.976;-4.247;7738;2021-02-11 20:50:44:016
0.76136;0.25618;9.84017;0.62617;0.45645;9.77599;0.16495;-0.14795;0.03932;-0.13561;0.05742;-1.12216;14.16;-7.74;-35.16;249.373;-2.976;-4.247;7768;2021-02-11 20:50:44:046
0.76136;0.25618;9.84017;0.62617;0.45645;9.77599;0.16495;-0.14795;0.03932;-0.13561;0.05742;-1.12216;14.16;-7.74;-35.16;249.373;-2.976;-4.247;7798;2021-02-11 20:50:44:076
0.76136;0.25618;9.84017;0.57557;0.3561;9.78327;0.16495;-0.14795;0.03932;-0.13561;0.05742;-1.12216;15.42;-5.76;-35.16;254.386;-2.081;-3.367;7827;2021-02-11 20:50:44:105
0.76136;0.25618;9.84017;0.57557;0.3561;9.78327;0.18839;-0.05364;0.04081;-0.13561;0.05742;-1.12216;15.42;-5.76;-35.16;254.386;-2.081;-3.367;7858;2021-02-11 20:50:44:136
0.75896;0.23463;9.84496;0.57557;0.3561;9.78327;0.18839;-0.05364;0.04081;-0.19242;-0.02077;-1.28831;15.42;-5.76;-35.16;254.386;-2.081;-3.367;7888;2021-02-11 20:50:44:166
0.75896;0.23463;9.84496;0.58904;0.23911;9.78602;0.18839;-0.05364;0.04081;-0.19242;-0.02077;-1.28831;15.42;-5.76;-35.16;254.386;-2.081;-3.367;7917;2021-02-11 20:50:44:195
0.75896;0.23463;9.84496;0.58904;0.23911;9.78602;0.13282;-0.00241;0.08118;-0.19242;-0.02077;-1.28831;15.96;-2.34;-35.4;266.293;-1.397;-3.445;7947;2021-02-11 20:50:44:225
0.76614;0.21069;9.85453;0.58904;0.23911;9.78602;0.13282;-0.00241;0.08118;-0.19242;-0.02077;-1.28831;15.96;-2.34;-35.4;266.293;-1.397;-3.445;7978;2021-02-11 20:50:44:256
0.76614;0.21069;9.85453;0.67636;0.13527;9.78236;0.13282;-0.00241;0.08118;-0.20159;-0.12523;-1.45752;15.96;-2.34;-35.4;266.293;-1.397;-3.445;8008;2021-02-11 20:50:44:286
0.76614;0.21069;9.85453;0.67636;0.13527;9.78236;0.13282;-0.00241;0.08118;-0.20159;-0.12523;-1.45752;15.96;-2.34;-35.4;266.293;-1.397;-3.445;8038;2021-02-11 20:50:44:316
0.79009;0.18196;9.90242;0.67636;0.13527;9.78236;0.06101;0.07682;0.12347;-0.20159;-0.12523;-1.45752;16.32;0.96;-35.16;274.562;-0.79;-3.955;8068;2021-02-11 20:50:44:346
0.79009;0.18196;9.90242;0.67636;0.13527;9.78236;0.06101;0.07682;0.12347;-0.20159;-0.12523;-1.45752;16.32;0.96;-35.16;274.562;-0.79;-3.955;8097;2021-02-11 20:50:44:375
0.79009;0.18196;9.90242;0.825;0.08175;9.77154;0.06101;0.07682;0.12347;-0.15638;-0.20647;-1.61574;16.32;0.96;-35.16;274.562;-0.79;-3.955;8127;2021-02-11 20:50:44:405
0.78051;0.14844;9.93833;0.825;0.08175;9.77154;-0.11205;0.06342;0.17276;-0.15638;-0.20647;-1.61574;16.32;0.96;-35.16;274.562;-0.79;-3.955;8158;2021-02-11 20:50:44:436
0.78051;0.14844;9.93833;0.825;0.08175;9.77154;-0.11205;0.06342;0.17276;-0.15638;-0.20647;-1.61574;14.76;4.98;-35.16;286.442;-0.478;-4.826;8190;2021-02-11 20:50:44:468
0.78051;0.14844;9.93833;0.9803;0.11538;9.75685;-0.11205;0.06342;0.17276;-0.15638;-0.20647;-1.61574;14.76;4.98;-35.16;286.442;-0.478;-4.826;8218;2021-02-11 20:50:44:496
0.76375;0.11732;9.93833;0.9803;0.11538;9.75685;-0.25755;-0.03014;0.18612;-0.08796;-0.22663;-1.75196;14.76;4.98;-35.16;286.442;-0.478;-4.826;8248;2021-02-11 20:50:44:526
0.76375;0.11732;9.93833;0.9803;0.11538;9.75685;-0.25755;-0.03014;0.18612;-0.08796;-0.22663;-1.75196;14.76;4.98;-35.16;286.442;-0.478;-4.826;8278;2021-02-11 20:50:44:556
0.76375;0.11732;9.93833;1.05253;0.20273;9.7479;-0.25755;-0.03014;0.18612;-0.08796;-0.22663;-1.75196;12.36;8.52;-35.4;301.322;-0.674;-5.737;8308;2021-02-11 20:50:44:586
0.76375;0.11732;9.93833;1.05253;0.20273;9.7479;-0.25755;-0.03014;0.18612;-0.08796;-0.22663;-1.75196;12.36;8.52;-35.4;301.322;-0.674;-5.737;8338;2021-02-11 20:50:44:616
0.77812;0.08859;9.912;1.05253;0.20273;9.7479;-0.2783;-0.14998;0.16533;-0.03421;-0.18265;-1.88513;12.36;8.52;-35.4;301.322;-0.674;-5.737;8369;2021-02-11 20:50:44:647
0.77812;0.08859;9.912;1.05253;0.20273;9.7479;-0.2783;-0.14998;0.16533;-0.03421;-0.18265;-1.88513;12.36;8.52;-35.4;301.322;-0.674;-5.737;8398;2021-02-11 20:50:44:676
0.77812;0.08859;9.912;1.0451;0.28738;9.74657;-0.2783;-0.14998;0.16533;-0.03421;-0.18265;-1.88513;8.94;12.12;-36.84;315.334;-1.679;-6.12;8428;2021-02-11 20:50:44:706
0.80685;0.06225;9.87848;1.0451;0.28738;9.74657;-0.2263;-0.25149;0.12855;-0.04093;-0.10324;-2.01219;8.94;12.12;-36.84;315.334;-1.679;-6.12;8458;2021-02-11 20:50:44:736
0.80685;0.06225;9.87848;1.0451;0.28738;9.74657;-0.2263;-0.25149;0.12855;-0.04093;-0.10324;-2.01219;8.94;12.12;-36.84;315.334;-1.679;-6.12;8488;2021-02-11 20:50:44:766
0.80685;0.06225;9.87848;0.98813;0.33826;9.75088;-0.2263;-0.25149;0.12855;-0.04093;-0.10324;-2.01219;8.94;12.12;-36.84;315.334;-1.679;-6.12;8518;2021-02-11 20:50:44:796
0.79727;0.05028;9.85932;0.98813;0.33826;9.75088;-0.15954;-0.31557;0.05278;-0.04093;-0.10324;-2.01219;6.24;14.28;-36.78;327.525;-1.977;-5.786;8547;2021-02-11 20:50:44:825
0.79727;0.05028;9.85932;0.98813;0.33826;9.75088;-0.15954;-0.31557;0.05278;-0.10996;-0.04459;-2.1307;6.24;14.28;-36.78;327.525;-1.977;-5.786;8581;2021-02-11 20:50:44:859
0.79727;0.05028;9.85932;0.90928;0.3276;9.75891;-0.15954;-0.31557;0.05278;-0.10996;-0.04459;-2.1307;6.24;14.28;-36.78;327.525;-1.977;-5.786;8608;2021-02-11 20:50:44:886
0.81163;0.04549;9.80426;0.90928;0.3276;9.75891;-0.08384;-0.30727;0.01337;-0.10996;-0.04459;-2.1307;6.24;14.28;-36.78;327.525;-1.977;-5.786;8640;2021-02-11 20:50:44:918
0.81163;0.04549;9.80426;0.90928;0.3276;9.75891;-0.08384;-0.30727;0.01337;-0.10996;-0.04459;-2.1307;2.94;16.44;-36.0;339.782;-1.914;-5.323;8668;2021-02-11 20:50:44:946
0.81163;0.04549;9.80426;0.84845;0.26011;9.76642;-0.08384;-0.30727;0.01337;-0.21869;-0.03665;-2.26448;2.94;16.44;-36.0;339.782;-1.914;-5.323;8701;2021-02-11 20:50:44:979
0.80685;-0.01676;9.79229;0.84845;0.26011;9.76642;-0.08384;-0.30727;0.01337;-0.21869;-0.03665;-2.26448;2.94;16.44;-36.0;339.782;-1.914;-5.323;8728;2021-02-11 20:50:45:006
0.80685;-0.01676;9.79229;0.84845;0.26011;9.76642;-0.04171;-0.24184;0.08612;-0.21869;-0.03665;-2.26448;2.94;16.44;-36.0;339.782;-1.914;-5.323;8760;2021-02-11 20:50:45:038
0.80685;-0.01676;9.79229;0.84845;0.26011;9.76642;-0.04171;-0.24184;0.08612;-0.21869;-0.03665;-2.26448;-0.84;18.0;-36.48;353.617;-1.52;-4.965;8789;2021-02-11 20:50:45:067
0.78051;-0.06943;9.83538;0.8378;0.15193;9.76962;-0.04171;-0.24184;0.08612;-0.30543;-0.09896;-2.38543;-0.84;18.0;-36.48;353.617;-1.52;-4.965;8819;2021-02-11 20:50:45:097
0.78051;-0.06943;9.83538;0.8378;0.15193;9.76962;-0.07536;-0.18248;0.11456;-0.30543;-0.09896;-2.38543;-0.84;18.0;-36.48;353.617;-1.52;-4.965;8848;2021-02-11 20:50:45:126
0.78051;-0.06943;9.83538;0.8378;0.15193;9.76962;-0.07536;-0.18248;0.11456;-0.30543;-0.09896;-2.38543;-0.84;18.0;-36.48;353.617;-1.52;-4.965;8877;2021-02-11 20:50:45:155
0.78051;-0.06943;9.83538;0.90697;0.02798;9.76458;-0.07536;-0.18248;0.11456;-0.30543;-0.09896;-2.38543;-6.6;18.06;-35.28;12.123;-0.888;-4.901;8907;2021-02-11 20:50:45:185
0.77333;-0.09337;9.92876;0.90697;0.02798;9.76458;-0.07536;-0.18248;0.11456;-0.30543;-0.09896;-2.38543;-6.6;18.06;-35.28;12.123;-0.888;-4.901;8938;2021-02-11 20:50:45:216
0.77333;-0.09337;9.92876;0.90697;0.02798;9.76458;-0.17906;-0.10238;0.13495;-0.32193;-0.18387;-2.47828;-6.6;18.06;-35.28;12.123;-0.888;-4.901;8968;2021-02-11 20:50:45:246
0.77333;-0.09337;9.92876;1.02546;-0.06207;9.75269;-0.17906;-0.10238;0.13495;-0.32193;-0.18387;-2.47828;-6.6;18.06;-35.28;12.123;-0.888;-4.901;8998;2021-02-11 20:50:45:276
0.74699;-0.14605;9.92157;1.02546;-0.06207;9.75269;-0.17906;-0.10238;0.13495;-0.32193;-0.18387;-2.47828;-11.94;17.46;-35.64;25.98;0.363;-6.002;9029;2021-02-11 20:50:45:307
0.74699;-0.14605;9.92157;1.02546;-0.06207;9.75269;-0.30975;-0.07454;0.17338;-0.32193;-0.18387;-2.47828;-11.94;17.46;-35.64;25.98;0.363;-6.002;9057;2021-02-11 20:50:45:335
0.74699;-0.14605;9.92157;1.02546;-0.06207;9.75269;-0.30975;-0.07454;0.17338;-0.26573;-0.24984;-2.55219;-11.94;17.46;-35.64;25.98;0.363;-6.002;9088;2021-02-11 20:50:45:366
0.74699;-0.14605;9.92157;1.07696;-0.08743;9.74694;-0.30975;-0.07454;0.17338;-0.26573;-0.24984;-2.55219;-11.94;17.46;-35.64;25.98;0.363;-6.002;9119;2021-02-11 20:50:45:397
0.74939;-0.17717;9.96946;1.07696;-0.08743;9.74694;-0.34765;-0.10082;0.2718;-0.26573;-0.24984;-2.55219;-17.1;15.54;-31.62;40.446;0.511;-6.305;9148;2021-02-11 20:50:45:426
0.74939;-0.17717;9.96946;1.07696;-0.08743;9.74694;-0.34765;-0.10082;0.2718;-0.26573;-0.24984;-2.55219;-17.1;15.54;-31.62;40.446;0.511;-6.305;9178;2021-02-11 20:50:45:456
0.74939;-0.17717;9.96946;1.14389;-0.04697;9.7396;-0.34765;-0.10082;0.2718;-0.17715;-0.23885;-2.59679;-17.1;15.54;-31.62;40.446;0.511;-6.305;9208;2021-02-11 20:50:45:486
0.77572;-0.19872;10.00537;1.14389;-0.04697;9.7396;-0.3779;-0.158;0.23781;-0.17715;-0.23885;-2.59679;-17.1;15.54;-31.62;40.446;0.511;-6.305;9239;2021-02-11 20:50:45:517
0.77572;-0.19872;10.00537;1.14389;-0.04697;9.7396;-0.3779;-0.158;0.23781;-0.17715;-0.23885;-2.59679;-20.7;11.76;-32.1;55.348;0.274;-6.699;9268;2021-02-11 20:50:45:546
0.77572;-0.19872;10.00537;1.04105;-0.02833;9.7512;-0.3779;-0.158;0.23781;-0.12339;-0.16799;-2.61511;-20.7;11.76;-32.1;55.348;0.274;-6.699;9304;2021-02-11 20:50:45:582
0.76614;-0.17238;9.98382;1.04105;-0.02833;9.7512;-0.3779;-0.158;0.23781;-0.12339;-0.16799;-2.61511;-20.7;11.76;-32.1;55.348;0.274;-6.699;9327;2021-02-11 20:50:45:605
0.76614;-0.17238;9.98382;1.04105;-0.02833;9.7512;-0.30488;-0.189;0.1585;-0.12339;-0.16799;-2.61511;-20.7;11.76;-32.1;55.348;0.274;-6.699;9359;2021-02-11 20:50:45:637
0.76614;-0.17238;9.98382;1.04105;-0.02833;9.7512;-0.30488;-0.189;0.1585;-0.12339;-0.16799;-2.61511;-23.52;5.16;-31.62;76.535;0.166;-6.094;9388;2021-02-11 20:50:45:666
0.76614;-0.17238;9.98382;1.01742;0.03525;9.75367;-0.30488;-0.189;0.1585;-0.12339;-0.16799;-2.61511;-23.52;5.16;-31.62;76.535;0.166;-6.094;9418;2021-02-11 20:50:45:696
0.71587;-0.1652;9.87369;1.01742;0.03525;9.75367;-0.30488;-0.189;0.1585;-0.13195;-0.07208;-2.60167;-23.52;5.16;-31.62;76.535;0.166;-6.094;9448;2021-02-11 20:50:45:726
0.71587;-0.1652;9.87369;1.01742;0.03525;9.75367;-0.28892;-0.21888;0.11564;-0.13195;-0.07208;-2.60167;-23.52;5.16;-31.62;76.535;0.166;-6.094;9478;2021-02-11 20:50:45:756
0.71587;-0.1652;9.87369;0.91652;0.03547;9.76366;-0.28892;-0.21888;0.11564;-0.13195;-0.07208;-2.60167;-23.52;-1.2;-30.9;92.44;-0.206;-5.955;9508;2021-02-11 20:50:45:786
0.68235;-0.13886;9.84256;0.91652;0.03547;9.76366;-0.28892;-0.21888;0.11564;-0.13195;-0.07208;-2.60167;-23.52;-1.2;-30.9;92.44;-0.206;-5.955;9537;2021-02-11 20:50:45:815
0.68235;-0.13886;9.84256;0.91652;0.03547;9.76366;-0.28892;-0.21888;0.11564;-0.19609;-0.01894;-2.52959;-23.52;-1.2;-30.9;92.44;-0.206;-5.955;9569;2021-02-11 20:50:45:847
0.68235;-0.13886;9.84256;0.8506;0.00228;9.76969;-0.19569;-0.1101;0.08557;-0.19609;-0.01894;-2.52959;-23.52;-1.2;-30.9;92.44;-0.206;-5.955;9598;2021-02-11 20:50:45:876
0.64883;-0.07901;9.83538;0.8506;0.00228;9.76969;-0.19569;-0.1101;0.08557;-0.19609;-0.01894;-2.52959;-21.72;-7.14;-30.96;109.984;-0.013;-4.976;9628;2021-02-11 20:50:45:906
0.64883;-0.07901;9.83538;0.8506;0.00228;9.76969;-0.19569;-0.1101;0.08557;-0.26023;-0.03238;-2.41414;-21.72;-7.14;-30.96;109.984;-0.013;-4.976;9659;2021-02-11 20:50:45:937
0.64883;-0.07901;9.83538;0.8506;0.00228;9.76969;-0.21984;-0.01705;0.06902;-0.26023;-0.03238;-2.41414;-21.72;-7.14;-30.96;109.984;-0.013;-4.976;9688;2021-02-11 20:50:45:966
0.61052;-0.04549;9.86651;0.83125;-0.05336;9.77121;-0.21984;-0.01705;0.06902;-0.26023;-0.03238;-2.41414;-21.72;-7.14;-30.96;109.984;-0.013;-4.976;9717;2021-02-11 20:50:45:995
0.61052;-0.04549;9.86651;0.83125;-0.05336;9.77121;-0.21984;-0.01705;0.06902;-0.26023;-0.03238;-2.41414;-18.3;-12.78;-30.54;130.721;0.312;-4.863;9747;2021-02-11 20:50:46:025
0.61052;-0.04549;9.86651;0.83125;-0.05336;9.77121;-0.21984;-0.01705;0.06902;-0.27489;-0.08125;-2.27486;-18.3;-12.78;-30.54;130.721;0.312;-4.863;9778;2021-02-11 20:50:46:056
0.59376;-0.02634;9.8689;0.84044;-0.10353;9.77002;-0.25147;0.06762;0.13958;-0.27489;-0.08125;-2.27486;-18.3;-12.78;-30.54;130.721;0.312;-4.863;9808;2021-02-11 20:50:46:086
0.59376;-0.02634;9.8689;0.84044;-0.10353;9.77002;-0.25147;0.06762;0.13958;-0.27489;-0.08125;-2.27486;-18.3;-12.78;-30.54;130.721;0.312;-4.863;9838;2021-02-11 20:50:46:116
0.59376;-0.02634;9.8689;0.84044;-0.10353;9.77002;-0.25147;0.06762;0.13958;-0.27489;-0.08125;-2.27486;-13.08;-17.4;-30.6;149.297;0.605;-4.917;9867;2021-02-11 20:50:46:145
0.54348;0.02634;9.87848;0.86158;-0.12858;9.76788;-0.30373;0.15013;0.21115;-0.23824;-0.15088;-2.08366;-13.08;-17.4;-30.6;149.297;0.605;-4.917;9898;2021-02-11 20:50:46:176
0.54348;0.02634;9.87848;0.86158;-0.12858;9.76788;-0.30373;0.15013;0.21115;-0.23824;-0.15088;-2.08366;-13.08;-17.4;-30.6;149.297;0.605;-4.917;9928;2021-02-11 20:50:46:206
0.54348;0.02634;9.87848;0.86158;-0.12858;9.76788;-0.30373;0.15013;0.21115;-0.23824;-0.15088;-2.08366;-13.08;-17.4;-30.6;149.297;0.605;-4.917;9958;2021-02-11 20:50:46:236
0.54348;0.02634;9.87848;0.88564;-0.09028;9.76616;-0.34934;0.1621;0.18175;-0.23824;-0.15088;-2.08366;-8.88;-19.86;-31.08;162.999;0.751;-5.041;9987;2021-02-11 20:50:46:265
0.54348;0.0838;9.93594;0.88564;-0.09028;9.76616;-0.34934;0.1621;0.18175;-0.15516;-0.18265;-1.88391;-8.88;-19.86;-31.08;162.999;0.751;-5.041;10017;2021-02-11 20:50:46:295
0.54348;0.0838;9.93594;0.88564;-0.09028;9.76616;-0.34934;0.1621;0.18175;-0.15516;-0.18265;-1.88391;-8.88;-19.86;-31.08;162.999;0.751;-5.041;10048;2021-02-11 20:50:46:326
0.54348;0.0838;9.93594;0.89169;8.0E-5;9.76603;-0.36257;0.11484;0.16512;-0.15516;-0.18265;-1.88391;-8.88;-19.86;-31.08;162.999;0.751;-5.041;10078;2021-02-11 20:50:46:356
0.51715;0.12689;9.95749;0.89169;8.0E-5;9.76603;-0.36257;0.11484;0.16512;-0.15516;-0.18265;-1.88391;-4.86;-20.64;-31.44;174.126;0.0;-5.217;10108;2021-02-11 20:50:46:386
0.51715;0.12689;9.95749;0.89169;8.0E-5;9.76603;-0.36257;0.11484;0.16512;-0.05437;-0.1576;-1.64873;-4.86;-20.64;-31.44;174.126;0.0;-5.217;10138;2021-02-11 20:50:46:416
0.51715;0.12689;9.95749;0.89169;8.0E-5;9.76603;-0.36257;0.11484;0.16512;-0.05437;-0.1576;-1.64873;-4.86;-20.64;-31.44;174.126;0.0;-5.217;10168;2021-02-11 20:50:46:446
0.50039;0.17238;9.92397;0.85743;0.1183;9.76838;-0.32831;0.03493;0.17714;-0.05437;-0.1576;-1.64873;-1.5;-20.04;-31.44;174.126;0.0;-5.217;10197;2021-02-11 20:50:46:475
0.50039;0.17238;9.92397;0.85743;0.1183;9.76838;-0.32831;0.03493;0.17714;-0.05437;-0.1576;-1.64873;-1.5;-20.04;-31.44;184.993;-0.691;-5.016;10227;2021-02-11 20:50:46:505
0.50039;0.17238;9.92397;0.85743;0.1183;9.76838;-0.32831;0.03493;0.17714;0.01588;-0.09102;-1.39888;-1.5;-20.04;-31.44;184.993;-0.691;-5.016;10258;2021-02-11 20:50:46:536
0.50039;0.17238;9.92397;0.78587;0.23401;9.77231;-0.29027;-0.02093;0.14926;0.01588;-0.09102;-1.39888;-1.5;-20.04;-31.44;184.993;-0.691;-5.016;10287;2021-02-11 20:50:46:565
0.48842;0.21787;9.90481;0.78587;0.23401;9.77231;-0.29027;-0.02093;0.14926;0.01588;-0.09102;-1.39888;-1.5;-20.04;-31.44;184.993;-0.691;-5.016;10317;2021-02-11 20:50:46:595
0.48842;0.21787;9.90481;0.78587;0.23401;9.77231;-0.29027;-0.02093;0.14926;0.01588;-0.09102;-1.39888;2.1;-19.26;-32.04;194.034;-1.367;-4.598;10348;2021-02-11 20:50:46:626
0.48842;0.21787;9.90481;0.7016;0.3267;9.77606;-0.19163;-0.06573;0.09284;0.03115;-0.02199;-1.15881;2.1;-19.26;-32.04;194.034;-1.367;-4.598;10378;2021-02-11 20:50:46:656
0.4956;0.27054;9.84256;0.7016;0.3267;9.77606;-0.19163;-0.06573;0.09284;0.03115;-0.02199;-1.15881;2.1;-19.26;-32.04;194.034;-1.367;-4.598;10408;2021-02-11 20:50:46:686
0.4956;0.27054;9.84256;0.7016;0.3267;9.77606;-0.19163;-0.06573;0.09284;0.03115;-0.02199;-1.15881;2.1;-19.26;-32.04;194.034;-1.367;-4.598;10437;2021-02-11 20:50:46:715
0.4956;0.27054;9.84256;0.7016;0.3267;9.77606;-0.19163;-0.06573;0.09284;0.03115;-0.02199;-1.15881;5.58;-17.88;-33.3;206.274;-1.909;-4.105;10467;2021-02-11 20:50:46:745
0.46926;0.28491;9.8282;0.61322;0.38666;9.77982;-0.14396;-0.11612;0.05317;0.00611;0.03115;-0.89736;5.58;-17.88;-33.3;206.274;-1.909;-4.105;10497;2021-02-11 20:50:46:775
0.46926;0.28491;9.8282;0.61322;0.38666;9.77982;-0.14396;-0.11612;0.05317;0.00611;0.03115;-0.89736;5.58;-17.88;-33.3;206.274;-1.909;-4.105;10528;2021-02-11 20:50:46:806
0.46926;0.28491;9.8282;0.61322;0.38666;9.77982;-0.14396;-0.11612;0.05317;0.00611;0.03115;-0.89736;5.58;-17.88;-33.3;206.274;-1.909;-4.105;10558;2021-02-11 20:50:46:836
0.46926;0.28491;9.8282;0.52618;0.4025;9.78425;-0.04495;-0.09605;0.0248;0.00611;0.03115;-0.89736;7.62;-17.52;-33.66;211.244;-2.26;-3.588;10588;2021-02-11 20:50:46:866
0.47405;0.30885;9.85453;0.52618;0.4025;9.78425;-0.04495;-0.09605;0.0248;-0.04337;0.04459;-0.63652;7.62;-17.52;-33.66;211.244;-2.26;-3.588;10618;2021-02-11 20:50:46:896
0.47405;0.30885;9.85453;0.52618;0.4025;9.78425;-0.04495;-0.09605;0.0248;-0.04337;0.04459;-0.63652;7.62;-17.52;-33.66;211.244;-2.26;-3.588;10648;2021-02-11 20:50:46:926
0.47405;0.30885;9.85453;0.46051;0.37305;9.78873;0.01593;-0.04505;0.04426;-0.04337;0.04459;-0.63652;7.62;-17.52;-33.66;211.244;-2.26;-3.588;10678;2021-02-11 20:50:46:956
0.4525;0.33279;9.84256;0.46051;0.37305;9.78873;0.01593;-0.04505;0.04426;-0.04337;0.04459;-0.63652;8.22;-17.22;-33.06;211.212;-2.18;-2.694;10708;2021-02-11 20:50:46:986
0.4525;0.33279;9.84256;0.46051;0.37305;9.78873;0.01593;-0.04505;0.04426;-0.08674;0.02138;-0.40073;8.22;-17.22;-33.06;211.212;-2.18;-2.694;10738;2021-02-11 20:50:47:016
0.4525;0.33279;9.84256;0.46051;0.37305;9.78873;0.01593;-0.04505;0.04426;-0.08674;0.02138;-0.40073;8.22;-17.22;-33.06;211.212;-2.18;-2.694;10770;2021-02-11 20:50:47:048
0.44772;0.31603;9.81144;0.42669;0.30609;9.79258;0.04018;0.01952;0.07871;-0.08674;0.02138;-0.40073;10.32;-16.56;-32.82;215.574;-1.789;-2.495;10803;2021-02-11 20:50:47:081
0.44772;0.31603;9.81144;0.42669;0.30609;9.79258;0.04018;0.01952;0.07871;-0.08674;0.02138;-0.40073;10.32;-16.56;-32.82;215.574;-1.789;-2.495;10828;2021-02-11 20:50:47:106
0.44772;0.31603;9.81144;0.42669;0.30609;9.79258;0.04018;0.01952;0.07871;-0.10934;-0.01772;-0.15027;10.32;-16.56;-32.82;215.574;-1.789;-2.495;10858;2021-02-11 20:50:47:136
0.44772;0.31603;9.81144;0.43608;0.21668;9.79455;0.03798;0.10654;0.03843;-0.10934;-0.01772;-0.15027;10.32;-16.56;-32.82;215.574;-1.789;-2.495;10888;2021-02-11 20:50:47:166
0.47884;0.34477;9.84975;0.43608;0.21668;9.79455;0.03798;0.10654;0.03843;-0.10934;-0.01772;-0.15027;10.32;-16.56;-32.82;215.574;-1.789;-2.495;10918;2021-02-11 20:50:47:196
0.47884;0.34477;9.84975;0.43608;0.21668;9.79455;0.03798;0.10654;0.03843;-0.10934;-0.01772;-0.15027;10.56;-16.02;-33.36;219.191;-1.266;-2.549;10948;2021-02-11 20:50:47:226
0.47884;0.34477;9.84975;0.43608;0.21668;9.79455;0.03798;0.10654;0.03843;-0.10201;-0.05559;0.08858;10.56;-16.02;-33.36;219.191;-1.266;-2.549;10977;2021-02-11 20:50:47:255
0.46926;0.31843;9.85932;0.4795;0.14326;9.79387;-0.01024;0.17517;0.06545;-0.10201;-0.05559;0.08858;10.56;-16.02;-33.36;219.191;-1.266;-2.549;11008;2021-02-11 20:50:47:286
0.46926;0.31843;9.85932;0.4795;0.14326;9.79387;-0.01024;0.17517;0.06545;-0.10201;-0.05559;0.08858;10.68;-15.54;-33.72;219.191;-1.266;-2.549;11038;2021-02-11 20:50:47:316
0.46926;0.31843;9.85932;0.4795;0.14326;9.79387;-0.01024;0.17517;0.06545;-0.10201;-0.05559;0.08858;10.68;-15.54;-33.72;219.191;-1.266;-2.549;11069;2021-02-11 20:50:47:347
0.49081;0.32561;9.88805;0.53349;0.10676;9.79155;-0.04268;0.21885;0.09651;-0.06536;-0.06964;0.29932;10.68;-15.54;-33.72;219.191;-1.266;-2.549;11097;2021-02-11 20:50:47:375
0.49081;0.32561;9.88805;0.53349;0.10676;9.79155;-0.04268;0.21885;0.09651;-0.06536;-0.06964;0.29932;10.68;-15.54;-33.72;219.191;-1.266;-2.549;11127;2021-02-11 20:50:47:405
0.49081;0.32561;9.88805;0.53349;0.10676;9.79155;-0.04268;0.21885;0.09651;-0.06536;-0.06964;0.29932;10.68;-15.54;-33.72;219.191;-1.266;-2.549;11158;2021-02-11 20:50:47:436
0.49799;0.32801;9.88087;0.5795;0.11019;9.78889;-0.09347;0.2226;0.12071;-0.06536;-0.06964;0.29932;10.26;-15.72;-33.72;217.123;-0.624;-3.119;11188;2021-02-11 20:50:47:466
0.49799;0.32801;9.88087;0.5795;0.11019;9.78889;-0.09347;0.2226;0.12071;-0.00489;-0.0617;0.51252;10.26;-15.72;-33.72;217.123;-0.624;-3.119;11218;2021-02-11 20:50:47:496
0.49799;0.32801;9.88087;0.5795;0.11019;9.78889;-0.09347;0.2226;0.12071;-0.00489;-0.0617;0.51252;10.26;-15.72;-33.72;217.123;-0.624;-3.119;11248;2021-02-11 20:50:47:526
0.51236;0.31364;9.91918;0.60852;0.14384;9.78669;-0.09347;0.2226;0.12071;-0.00489;-0.0617;0.51252;8.76;-16.2;-34.02;215.574;-0.84;-3.558;11278;2021-02-11 20:50:47:556
0.51236;0.31364;9.91918;0.60852;0.14384;9.78669;-0.11439;0.14654;0.08019;-0.00489;-0.0617;0.51252;8.76;-16.2;-34.02;215.574;-0.84;-3.558;11308;2021-02-11 20:50:47:586
0.51236;0.31364;9.91918;0.60852;0.14384;9.78669;-0.11439;0.14654;0.08019;0.06414;-0.03238;0.70066;8.76;-16.2;-34.02;215.574;-0.84;-3.558;11338;2021-02-11 20:50:47:616
0.50039;0.29688;9.92397;0.60852;0.14384;9.78669;-0.11439;0.14654;0.08019;0.06414;-0.03238;0.70066;8.76;-16.2;-34.02;215.574;-0.84;-3.558;11368;2021-02-11 20:50:47:646
0.50039;0.29688;9.92397;0.62151;0.19706;9.78495;-0.07932;0.07236;0.14655;0.06414;-0.03238;0.70066;7.08;-16.32;-32.04;210.401;-1.151;-3.634;11398;2021-02-11 20:50:47:676
0.50039;0.29688;9.92397;0.62151;0.19706;9.78495;-0.07932;0.07236;0.14655;0.06414;-0.03238;0.70066;7.08;-16.32;-32.04;210.401;-1.151;-3.634;11428;2021-02-11 20:50:47:706
0.53151;0.2873;9.92397;0.62151;0.19706;9.78495;-0.07932;0.07236;0.14655;0.13317;0.00977;0.89064;7.08;-16.32;-32.04;210.401;-1.151;-3.634;11458;2021-02-11 20:50:47:736
0.53151;0.2873;9.92397;0.62066;0.27141;9.78323;-0.07932;0.07236;0.14655;0.13317;0.00977;0.89064;7.08;-16.32;-32.04;210.401;-1.151;-3.634;11487;2021-02-11 20:50:47:765
0.53151;0.2873;9.92397;0.62066;0.27141;9.78323;-0.07298;-0.02813;0.16268;0.13317;0.00977;0.89064;6.12;-17.46;-33.18;206.653;-1.586;-3.63;11517;2021-02-11 20:50:47:795
0.54588;0.26097;9.93354;0.62066;0.27141;9.78323;-0.07298;-0.02813;0.16268;0.13317;0.00977;0.89064;6.12;-17.46;-33.18;206.653;-1.586;-3.63;11548;2021-02-11 20:50:47:826
0.54588;0.26097;9.93354;0.60793;0.34799;9.7816;-0.07298;-0.02813;0.16268;0.18754;0.05131;1.06352;6.12;-17.46;-33.18;206.653;-1.586;-3.63;11578;2021-02-11 20:50:47:856
0.54588;0.26097;9.93354;0.60793;0.34799;9.7816;-0.05116;-0.13125;0.14318;0.18754;0.05131;1.06352;6.12;-17.46;-33.18;206.653;-1.586;-3.63;11608;2021-02-11 20:50:47:886
0.55545;0.25618;9.92876;0.60793;0.34799;9.7816;-0.05116;-0.13125;0.14318;0.18754;0.05131;1.06352;3.9;-18.9;-33.84;206.653;-1.586;-3.63;11638;2021-02-11 20:50:47:916
0.55545;0.25618;9.92876;0.57808;0.44086;9.77967;-0.05116;-0.13125;0.14318;0.18754;0.05131;1.06352;3.9;-18.9;-33.84;198.928;-2.034;-3.556;11667;2021-02-11 20:50:47:945
0.55545;0.25618;9.92876;0.57808;0.44086;9.77967;-0.05116;-0.13125;0.14318;0.21564;0.0843;1.20646;3.9;-18.9;-33.84;198.928;-2.034;-3.556;11698;2021-02-11 20:50:47:976
0.55545;0.25618;9.92876;0.57808;0.44086;9.77967;0.02281;-0.25799;0.1307;0.21564;0.0843;1.20646;3.9;-18.9;-33.84;198.928;-2.034;-3.556;11728;2021-02-11 20:50:48:006
0.59376;0.22266;9.90481;0.54857;0.49606;9.77872;0.02281;-0.25799;0.1307;0.21564;0.0843;1.20646;2.34;-20.1;-32.7;191.858;-2.899;-3.211;11758;2021-02-11 20:50:48:036
0.59376;0.22266;9.90481;0.54857;0.49606;9.77872;0.02281;-0.25799;0.1307;0.21564;0.0843;1.20646;2.34;-20.1;-32.7;191.858;-2.899;-3.211;11788;2021-02-11 20:50:48:066
0.59376;0.22266;9.90481;0.54857;0.49606;9.77872;0.06054;-0.28701;0.10692;0.21319;0.10934;1.33413;2.34;-20.1;-32.7;191.858;-2.899;-3.211;11818;2021-02-11 20:50:48:096
0.59376;0.21787;9.88805;0.54857;0.49606;9.77872;0.06054;-0.28701;0.10692;0.21319;0.10934;1.33413;2.34;-20.1;-32.7;191.858;-2.899;-3.211;11848;2021-02-11 20:50:48:126
0.59376;0.21787;9.88805;0.52786;0.51056;9.77912;0.06054;-0.28701;0.10692;0.21319;0.10934;1.33413;-0.42;-21.06;-31.8;185.105;-2.984;-3.09;11878;2021-02-11 20:50:48:156
0.59376;0.21787;9.88805;0.52786;0.51056;9.77912;0.06054;-0.28701;0.10692;0.21319;0.10934;1.33413;-0.42;-21.06;-31.8;185.105;-2.984;-3.09;11909;2021-02-11 20:50:48:187
0.63446;0.20111;9.86172;0.52786;0.51056;9.77912;0.09611;-0.28585;0.07927;0.18021;0.13011;1.42393;-0.42;-21.06;-31.8;185.105;-2.984;-3.09;11938;2021-02-11 20:50:48:216
0.63446;0.20111;9.86172;0.52384;0.47406;9.78117;0.09611;-0.28585;0.07927;0.18021;0.13011;1.42393;-0.42;-21.06;-31.8;185.105;-2.984;-3.09;11968;2021-02-11 20:50:48:246
0.63446;0.20111;9.86172;0.52384;0.47406;9.78117;0.09611;-0.28585;0.07927;0.18021;0.13011;1.42393;-3.78;-21.48;-31.2;173.157;-2.771;-3.066;11998;2021-02-11 20:50:48:276
0.64165;0.20111;9.86651;0.52384;0.47406;9.78117;0.13238;-0.25723;0.08382;0.18021;0.13011;1.42393;-3.78;-21.48;-31.2;173.157;-2.771;-3.066;12028;2021-02-11 20:50:48:306
0.64165;0.20111;9.86651;0.51778;0.40824;9.78446;0.13238;-0.25723;0.08382;0.13317;0.14722;1.47157;-3.78;-21.48;-31.2;173.157;-2.771;-3.066;12058;2021-02-11 20:50:48:336
0.64165;0.20111;9.86651;0.51778;0.40824;9.78446;0.13238;-0.25723;0.08382;0.13317;0.14722;1.47157;-3.78;-21.48;-31.2;173.157;-2.771;-3.066;12088;2021-02-11 20:50:48:366
0.67995;0.20111;9.87129;0.51778;0.40824;9.78446;0.16158;-0.15208;0.08473;0.13317;0.14722;1.47157;-7.5;-20.82;-30.66;164.784;-2.386;-3.029;12118;2021-02-11 20:50:48:396
0.67995;0.20111;9.87129;0.51778;0.40824;9.78446;0.16158;-0.15208;0.08473;0.13317;0.14722;1.47157;-7.5;-20.82;-30.66;164.784;-2.386;-3.029;12148;2021-02-11 20:50:48:426
0.67995;0.20111;9.87129;0.51282;0.32431;9.78786;0.16158;-0.15208;0.08473;0.08063;0.16249;1.48013;-7.5;-20.82;-30.66;164.784;-2.386;-3.029;12178;2021-02-11 20:50:48:456
0.67995;0.20111;9.87129;0.51282;0.32431;9.78786;0.16158;-0.15208;0.08473;0.08063;0.16249;1.48013;-7.5;-20.82;-30.66;164.784;-2.386;-3.029;12208;2021-02-11 20:50:48:486
0.7039;0.19872;9.88326;0.51282;0.32431;9.78786;0.19896;-0.08558;0.09375;0.08063;0.16249;1.48013;-7.5;-20.82;-30.66;164.784;-2.386;-3.029;12238;2021-02-11 20:50:48:516
0.7039;0.19872;9.88326;0.50115;0.25791;9.79044;0.19896;-0.08558;0.09375;0.08063;0.16249;1.48013;-10.86;-19.98;-30.48;153.615;-1.895;-2.999;12268;2021-02-11 20:50:48:546
0.7039;0.19872;9.88326;0.50115;0.25791;9.79044;0.19896;-0.08558;0.09375;0.03482;0.16738;1.44897;-10.86;-19.98;-30.48;153.615;-1.895;-2.999;12298;2021-02-11 20:50:48:576
0.69911;0.20111;9.8689;0.50115;0.25791;9.79044;0.202;-0.02103;0.07738;0.03482;0.16738;1.44897;-10.86;-19.98;-30.48;153.615;-1.895;-2.999;12328;2021-02-11 20:50:48:606
0.69911;0.20111;9.8689;0.4967;0.20229;9.79197;0.202;-0.02103;0.07738;0.03482;0.16738;1.44897;-14.1;-17.88;-30.9;144.41;-1.182;-2.904;12357;2021-02-11 20:50:48:635
0.69911;0.20111;9.8689;0.4967;0.20229;9.79197;0.202;-0.02103;0.07738;0.03482;0.16738;1.44897;-14.1;-17.88;-30.9;144.41;-1.182;-2.904;12388;2021-02-11 20:50:48:666
0.71587;0.21548;9.83299;0.4967;0.20229;9.79197;0.21606;0.03726;0.0407;0.01283;0.16188;1.38972;-14.1;-17.88;-30.9;144.41;-1.182;-2.904;12418;2021-02-11 20:50:48:696
0.71587;0.21548;9.83299;0.4967;0.20229;9.79197;0.21606;0.03726;0.0407;0.01283;0.16188;1.38972;-14.1;-17.88;-30.9;144.41;-1.182;-2.904;12449;2021-02-11 20:50:48:727
0.71587;0.21548;9.83299;0.47876;0.1622;9.79361;0.21606;0.03726;0.0407;0.01283;0.16188;1.38972;-16.8;-15.96;-31.38;135.011;-0.948;-2.799;12478;2021-02-11 20:50:48:756
0.71587;0.21548;9.83299;0.47876;0.1622;9.79361;0.21606;0.03726;0.0407;0.01283;0.16188;1.38972;-16.8;-15.96;-31.38;135.011;-0.948;-2.799;12508;2021-02-11 20:50:48:786
0.71826;0.22266;9.88566;0.47876;0.1622;9.79361;0.25659;0.07849;0.09094;0.00794;0.13378;1.30359;-16.8;-15.96;-31.38;135.011;-0.948;-2.799;12538;2021-02-11 20:50:48:816
0.71826;0.22266;9.88566;0.45957;0.13563;9.79494;0.25659;0.07849;0.09094;0.00794;0.13378;1.30359;-16.8;-15.96;-31.38;135.011;-0.948;-2.799;12568;2021-02-11 20:50:48:846
0.71826;0.22266;9.88566;0.45957;0.13563;9.79494;0.25659;0.07849;0.09094;0.00794;0.13378;1.30359;-18.42;-13.02;-32.1;127.279;-0.792;-2.686;12599;2021-02-11 20:50:48:877
0.70868;0.22984;9.87369;0.45957;0.13563;9.79494;0.24175;0.10169;0.079;0.01222;0.08369;1.19546;-18.42;-13.02;-32.1;127.279;-0.792;-2.686;12631;2021-02-11 20:50:48:909
0.70868;0.22984;9.87369;0.47697;0.1254;9.79424;0.24175;0.10169;0.079;0.01222;0.08369;1.19546;-18.42;-13.02;-32.1;127.279;-0.792;-2.686;12658;2021-02-11 20:50:48:936
0.70868;0.22984;9.87369;0.47697;0.1254;9.79424;0.24175;0.10169;0.079;0.01222;0.08369;1.19546;-18.42;-13.02;-32.1;127.279;-0.792;-2.686;12688;2021-02-11 20:50:48:966
0.73981;0.23463;9.86172;0.47697;0.1254;9.79424;0.24091;0.1097;0.06856;0.01222;0.08369;1.19546;-19.14;-10.26;-32.58;118.839;-0.733;-2.788;12718;2021-02-11 20:50:48:996
0.73981;0.23463;9.86172;0.47697;0.1254;9.79424;0.24091;0.1097;0.06856;0.01222;0.08369;1.19546;-19.14;-10.26;-32.58;118.839;-0.733;-2.788;12748;2021-02-11 20:50:49:026
0.73981;0.23463;9.86172;0.51728;0.12596;9.79219;0.24091;0.1097;0.06856;0.02199;0.02749;1.08184;-19.14;-10.26;-32.58;118.839;-0.733;-2.788;12778;2021-02-11 20:50:49:056
0.73981;0.23463;9.86172;0.51728;0.12596;9.79219;0.24091;0.1097;0.06856;0.02199;0.02749;1.08184;-19.14;-10.26;-32.58;118.839;-0.733;-2.788;12808;2021-02-11 20:50:49:086
0.73263;0.23703;9.89284;0.51728;0.12596;9.79219;0.1816;0.10328;0.1026;0.02199;0.02749;1.08184;-19.14;-10.26;-32.58;118.839;-0.733;-2.788;12838;2021-02-11 20:50:49:116
0.73263;0.23703;9.89284;0.5758;0.13427;9.78881;0.1816;0.10328;0.1026;0.02199;0.02749;1.08184;-21.0;-7.14;-32.88;108.841;-0.736;-3.024;12868;2021-02-11 20:50:49:146
0.73263;0.23703;9.89284;0.5758;0.13427;9.78881;0.1816;0.10328;0.1026;0.0336;-0.02993;0.94562;-21.0;-7.14;-32.88;108.841;-0.736;-3.024;12898;2021-02-11 20:50:49:176
0.73981;0.25618;9.86411;0.5758;0.13427;9.78881;0.12193;0.11891;0.07791;0.0336;-0.02993;0.94562;-21.0;-7.14;-32.88;108.841;-0.736;-3.024;12928;2021-02-11 20:50:49:206
0.73981;0.25618;9.86411;0.64817;0.13955;9.78421;0.12193;0.11891;0.07791;0.0336;-0.02993;0.94562;-22.08;-4.98;-32.64;102.851;-0.815;-3.79;12957;2021-02-11 20:50:49:235
0.73981;0.25618;9.86411;0.64817;0.13955;9.78421;0.12193;0.11891;0.07791;0.0336;-0.02993;0.94562;-22.08;-4.98;-32.64;102.851;-0.815;-3.79;12987;2021-02-11 20:50:49:265
0.72305;0.26576;9.83299;0.64817;0.13955;9.78421;0.02565;0.11929;0.05226;0.04887;-0.06842;0.79718;-22.08;-4.98;-32.64;102.851;-0.815;-3.79;13018;2021-02-11 20:50:49:296
0.72305;0.26576;9.83299;0.64817;0.13955;9.78421;0.02565;0.11929;0.05226;0.04887;-0.06842;0.79718;-22.08;-4.98;-32.64;102.851;-0.815;-3.79;13048;2021-02-11 20:50:49:326
0.72305;0.26576;9.83299;0.73104;0.1527;9.77817;0.02565;0.11929;0.05226;0.04887;-0.06842;0.79718;-22.26;-3.54;-31.62;100.083;-0.892;-4.276;13077;2021-02-11 20:50:49:355
0.72305;0.26576;9.83299;0.73104;0.1527;9.77817;0.02565;0.11929;0.05226;0.04887;-0.06842;0.79718;-22.26;-3.54;-31.62;100.083;-0.892;-4.276;13108;2021-02-11 20:50:49:386
0.71108;0.29928;9.87129;0.73104;0.1527;9.77817;-0.0686;0.1339;0.09709;0.06292;-0.07941;0.65485;-22.26;-3.54;-31.62;100.083;-0.892;-4.276;13137;2021-02-11 20:50:49:415
0.71108;0.29928;9.87129;0.80839;0.17755;9.77166;-0.0686;0.1339;0.09709;0.06292;-0.07941;0.65485;-22.26;-3.54;-31.62;100.083;-0.892;-4.276;13167;2021-02-11 20:50:49:445
0.71587;0.28252;9.90002;0.80839;0.17755;9.77166;-0.0686;0.1339;0.09709;0.06292;-0.07941;0.65485;-22.8;-1.32;-31.44;91.143;-1.037;-4.729;13198;2021-02-11 20:50:49:476
0.71587;0.28252;9.90002;0.80839;0.17755;9.77166;-0.12525;0.1055;0.11263;0.06292;-0.07941;0.65485;-22.8;-1.32;-31.44;91.143;-1.037;-4.729;13228;2021-02-11 20:50:49:506
0.71587;0.28252;9.90002;0.8613;0.21961;9.76628;-0.12525;0.1055;0.11263;0.07697;-0.06292;0.49175;-22.8;-1.32;-31.44;91.143;-1.037;-4.729;13258;2021-02-11 20:50:49:536
0.71587;0.28252;9.90002;0.8613;0.21961;9.76628;-0.12525;0.1055;0.11263;0.07697;-0.06292;0.49175;-22.8;-1.32;-31.44;91.143;-1.037;-4.729;13288;2021-02-11 20:50:49:566
0.73023;0.29688;9.85453;0.8613;0.21961;9.76628;-0.1415;0.05766;0.12861;0.07697;-0.06292;0.49175;-23.28;0.12;-30.72;87.91;-1.283;-5.04;13317;2021-02-11 20:50:49:595
0.73023;0.29688;9.85453;0.8613;0.21961;9.76628;-0.1415;0.05766;0.12861;0.07697;-0.06292;0.49175;-23.28;0.12;-30.72;87.91;-1.283;-5.04;13348;2021-02-11 20:50:49:626
0.73023;0.29688;9.85453;0.8782;0.27059;9.7635;-0.1415;0.05766;0.12861;0.08369;-0.01955;0.32559;-23.28;0.12;-30.72;87.91;-1.283;-5.04;13378;2021-02-11 20:50:49:656
0.7422;0.30406;9.81862;0.8782;0.27059;9.7635;-0.1415;0.05766;0.12861;0.08369;-0.01955;0.32559;-23.28;0.12;-30.72;87.91;-1.283;-5.04;13408;2021-02-11 20:50:49:686
0.7422;0.30406;9.81862;0.8782;0.27059;9.7635;-0.1422;0.01185;0.16312;0.08369;-0.01955;0.32559;-24.12;1.62;-31.98;82.05;-1.581;-5.14;13438;2021-02-11 20:50:49:716
0.7422;0.30406;9.81862;0.85751;0.32617;9.76364;-0.1422;0.01185;0.16312;0.08369;-0.01955;0.32559;-24.12;1.62;-31.98;82.05;-1.581;-5.14;13468;2021-02-11 20:50:49:746
0.71826;0.30167;9.85214;0.85751;0.32617;9.76364;-0.1422;0.01185;0.16312;0.08063;0.03115;0.17165;-24.12;1.62;-31.98;82.05;-1.581;-5.14;13498;2021-02-11 20:50:49:776
0.71826;0.30167;9.85214;0.85751;0.32617;9.76364;-0.08256;-0.05937;0.10638;0.08063;0.03115;0.17165;-24.12;1.62;-31.98;82.05;-1.581;-5.14;13528;2021-02-11 20:50:49:806
0.71826;0.30167;9.85214;0.80338;0.37853;9.76635;-0.08256;-0.05937;0.10638;0.08063;0.03115;0.17165;-24.18;1.8;-31.98;81.177;-2.212;-4.703;13558;2021-02-11 20:50:49:836
0.73023;0.31603;9.88566;0.80338;0.37853;9.76635;-0.08256;-0.05937;0.10638;0.08063;0.03115;0.17165;-24.18;1.8;-31.98;81.177;-2.212;-4.703;13588;2021-02-11 20:50:49:866
0.73023;0.31603;9.88566;0.80338;0.37853;9.76635;-0.02461;-0.11494;0.05681;0.05681;0.07819;0.00855;-24.18;1.8;-31.98;81.177;-2.212;-4.703;13618;2021-02-11 20:50:49:896
0.73023;0.31603;9.88566;0.72288;0.4179;9.77104;-0.02461;-0.11494;0.05681;0.05681;0.07819;0.00855;-24.18;1.8;-31.98;81.177;-2.212;-4.703;13649;2021-02-11 20:50:49:927
0.73981;0.29688;9.86651;0.72288;0.4179;9.77104;-0.02461;-0.11494;0.05681;0.05681;0.07819;0.00855;-24.24;1.74;-29.94;81.236;-2.442;-4.231;13678;2021-02-11 20:50:49:956
0.73981;0.29688;9.86651;0.72288;0.4179;9.77104;-0.02461;-0.11494;0.05681;0.05681;0.07819;0.00855;-24.24;1.74;-29.94;81.236;-2.442;-4.231;13708;2021-02-11 20:50:49:986
0.73981;0.29688;9.86651;0.72288;0.4179;9.77104;0.05985;-0.11366;0.09436;0.01833;0.10079;-0.146;-24.24;1.74;-29.94;81.236;-2.442;-4.231;13738;2021-02-11 20:50:50:016
0.72065;0.2873;9.90242;0.63272;0.4264;9.77692;0.05985;-0.11366;0.09436;0.01833;0.10079;-0.146;-24.24;1.74;-29.94;81.236;-2.442;-4.231;13768;2021-02-11 20:50:50:046
0.72065;0.2873;9.90242;0.63272;0.4264;9.77692;0.05985;-0.11366;0.09436;0.01833;0.10079;-0.146;-23.4;0.84;-31.68;83.304;-2.492;-3.703;13798;2021-02-11 20:50:50:076
0.72065;0.2873;9.90242;0.63272;0.4264;9.77692;0.1216;-0.09807;0.09564;-0.02871;0.09163;-0.27489;-23.4;0.84;-31.68;83.304;-2.492;-3.703;13829;2021-02-11 20:50:50:107
0.69671;0.2897;9.86411;0.5588;0.39997;9.78254;0.1216;-0.09807;0.09564;-0.02871;0.09163;-0.27489;-23.4;0.84;-31.68;83.304;-2.492;-3.703;13858;2021-02-11 20:50:50:136
0.69671;0.2897;9.86411;0.5588;0.39997;9.78254;0.1216;-0.09807;0.09564;-0.02871;0.09163;-0.27489;-23.4;0.84;-31.68;83.304;-2.492;-3.703;13888;2021-02-11 20:50:50:166
0.69671;0.2897;9.86411;0.5588;0.39997;9.78254;0.18375;-0.06356;0.08848;-0.02871;0.09163;-0.27489;-22.62;0.72;-31.8;83.641;-2.337;-3.269;13918;2021-02-11 20:50:50:196
0.69671;0.2897;9.86411;0.5588;0.39997;9.78254;0.18375;-0.06356;0.08848;-0.02871;0.09163;-0.27489;-22.62;0.72;-31.8;83.641;-2.337;-3.269;13948;2021-02-11 20:50:50:226
0.72305;0.29209;9.85693;0.5225;0.34697;9.78657;0.18375;-0.06356;0.08848;-0.0733;0.04765;-0.40012;-22.62;0.72;-31.8;83.641;-2.337;-3.269;13978;2021-02-11 20:50:50:256
0.72305;0.29209;9.85693;0.5225;0.34697;9.78657;0.18375;-0.06356;0.08848;-0.0733;0.04765;-0.40012;-22.62;0.72;-31.8;83.641;-2.337;-3.269;14008;2021-02-11 20:50:50:286
0.72305;0.29209;9.85693;0.5225;0.34697;9.78657;0.17842;-0.02012;0.0762;-0.0733;0.04765;-0.40012;-22.62;0.3;-31.98;86.84;-2.028;-3.056;14038;2021-02-11 20:50:50:316
0.7039;0.28491;9.89045;0.52793;0.28413;9.78831;0.17842;-0.02012;0.0762;-0.0733;0.04765;-0.40012;-22.62;0.3;-31.98;86.84;-2.028;-3.056;14068;2021-02-11 20:50:50:346
0.7039;0.28491;9.89045;0.52793;0.28413;9.78831;0.17842;-0.02012;0.0762;-0.09896;-0.01894;-0.50763;-22.62;0.3;-31.98;86.84;-2.028;-3.056;14098;2021-02-11 20:50:50:376
0.7039;0.28491;9.89045;0.52793;0.28413;9.78831;0.14077;0.04065;0.07846;-0.09896;-0.01894;-0.50763;-22.62;0.3;-31.98;86.84;-2.028;-3.056;14130;2021-02-11 20:50:50:408
0.68474;0.27054;9.88805;0.57373;0.22371;9.7873;0.14077;0.04065;0.07846;-0.09896;-0.01894;-0.50763;-22.98;-0.06;-32.52;87.87;-1.307;-3.355;14159;2021-02-11 20:50:50:437
0.68474;0.27054;9.88805;0.57373;0.22371;9.7873;0.14077;0.04065;0.07846;-0.09896;-0.01894;-0.50763;-22.98;-0.06;-32.52;87.87;-1.307;-3.355;14188;2021-02-11 20:50:50:466
0.68474;0.27054;9.88805;0.57373;0.22371;9.7873;0.09191;0.08889;0.10682;-0.09713;-0.08491;-0.58948;-22.98;-0.06;-32.52;87.87;-1.307;-3.355;14218;2021-02-11 20:50:50:496
0.67756;0.28252;9.9096;0.57373;0.22371;9.7873;0.09191;0.08889;0.10682;-0.09713;-0.08491;-0.58948;-22.98;-0.06;-32.52;87.87;-1.307;-3.355;14248;2021-02-11 20:50:50:526
0.67756;0.28252;9.9096;0.65626;0.18025;9.78301;0.09191;0.08889;0.10682;-0.09713;-0.08491;-0.58948;-22.86;-1.68;-31.62;93.807;-1.053;-3.838;14279;2021-02-11 20:50:50:557
0.67756;0.28252;9.9096;0.65626;0.18025;9.78301;-0.04974;0.10245;0.14514;-0.09713;-0.08491;-0.58948;-22.86;-1.68;-31.62;93.807;-1.053;-3.838;14308;2021-02-11 20:50:50:586
0.67277;0.26336;9.91918;0.65626;0.18025;9.78301;-0.04974;0.10245;0.14514;-0.06414;-0.13806;-0.66829;-22.86;-1.68;-31.62;93.807;-1.053;-3.838;14338;2021-02-11 20:50:50:616
0.67277;0.26336;9.91918;0.75435;0.18092;9.77592;-0.04974;0.10245;0.14514;-0.06414;-0.13806;-0.66829;-22.86;-1.68;-31.62;93.807;-1.053;-3.838;14368;2021-02-11 20:50:50:646
0.67277;0.26336;9.91918;0.75435;0.18092;9.77592;-0.04974;0.10245;0.14514;-0.06414;-0.13806;-0.66829;-23.16;-3.42;-32.28;96.627;-1.057;-4.412;14398;2021-02-11 20:50:50:676
0.67756;0.26815;9.90481;0.75435;0.18092;9.77592;-0.14395;0.07209;0.13775;-0.06414;-0.13806;-0.66829;-23.16;-3.42;-32.28;96.627;-1.057;-4.412;14428;2021-02-11 20:50:50:706
0.67756;0.26815;9.90481;0.82021;0.22312;9.76974;-0.14395;0.07209;0.13775;-0.02321;-0.14539;-0.71471;-23.16;-3.42;-32.28;96.627;-1.057;-4.412;14458;2021-02-11 20:50:50:736
0.67756;0.26815;9.90481;0.82021;0.22312;9.76974;-0.14395;0.07209;0.13775;-0.02321;-0.14539;-0.71471;-23.16;-3.42;-32.28;96.627;-1.057;-4.412;14488;2021-02-11 20:50:50:766
0.67756;0.26815;9.90481;0.82021;0.22312;9.76974;-0.1799;0.02663;0.12249;-0.02321;-0.14539;-0.71471;-23.04;-4.98;-30.96;101.816;-1.304;-4.799;14518;2021-02-11 20:50:50:796
0.65362;0.27054;9.90002;0.83069;0.28051;9.76738;-0.1799;0.02663;0.12249;-0.02321;-0.14539;-0.71471;-23.04;-4.98;-30.96;101.816;-1.304;-4.799;14549;2021-02-11 20:50:50:827
0.65362;0.27054;9.90002;0.83069;0.28051;9.76738;-0.1799;0.02663;0.12249;0.00611;-0.10996;-0.73915;-23.04;-4.98;-30.96;101.816;-1.304;-4.799;14577;2021-02-11 20:50:50:855
0.65362;0.27054;9.90002;0.83069;0.28051;9.76738;-0.17364;-0.04397;0.12066;0.00611;-0.10996;-0.73915;-23.04;-4.98;-30.96;101.816;-1.304;-4.799;14608;2021-02-11 20:50:50:886
0.63925;0.27294;9.9096;0.83069;0.28051;9.76738;-0.17364;-0.04397;0.12066;0.00611;-0.10996;-0.73915;-22.08;-6.6;-30.18;107.443;-1.639;-4.861;14638;2021-02-11 20:50:50:916
0.63925;0.27294;9.9096;0.80545;0.32631;9.76807;-0.17364;-0.04397;0.12066;0.00611;-0.10996;-0.73915;-22.08;-6.6;-30.18;107.443;-1.639;-4.861;14668;2021-02-11 20:50:50:946
0.63925;0.27294;9.9096;0.80545;0.32631;9.76807;-0.17364;-0.04397;0.12066;0.00611;-0.10996;-0.73915;-22.08;-6.6;-30.18;107.443;-1.639;-4.861;14698;2021-02-11 20:50:50:976
0.64165;0.26815;9.85932;0.80545;0.32631;9.76807;-0.13732;-0.06847;0.09937;0.01222;-0.0452;-0.7422;-22.08;-6.6;-30.18;107.443;-1.639;-4.861;14728;2021-02-11 20:50:51:006
0.64165;0.26815;9.85932;0.75865;0.3564;9.77076;-0.13732;-0.06847;0.09937;0.01222;-0.0452;-0.7422;-21.24;-9.12;-29.94;112.86;-2.083;-4.44;14758;2021-02-11 20:50:51:036
0.64165;0.26815;9.85932;0.75865;0.3564;9.77076;-0.13732;-0.06847;0.09937;0.01222;-0.0452;-0.7422;-21.24;-9.12;-29.94;112.86;-2.083;-4.44;14788;2021-02-11 20:50:51:066
0.64165;0.26815;9.85932;0.75865;0.3564;9.77076;-0.0962;-0.09085;0.0812;0.01222;-0.0452;-0.7422;-21.24;-9.12;-29.94;112.86;-2.083;-4.44;14818;2021-02-11 20:50:51:096
0.64165;0.29209;9.86172;0.69572;0.36748;9.77504;-0.0962;-0.09085;0.0812;-0.01405;0.01588;-0.72326;-21.24;-9.12;-29.94;112.86;-2.083;-4.44;14848;2021-02-11 20:50:51:126
0.64165;0.29209;9.86172;0.69572;0.36748;9.77504;-0.0962;-0.09085;0.0812;-0.01405;0.01588;-0.72326;-21.06;-10.98;-29.82;117.547;-2.147;-4.071;14879;2021-02-11 20:50:51:157
0.64165;0.29209;9.86172;0.69572;0.36748;9.77504;-0.04238;-0.08326;0.06451;-0.01405;0.01588;-0.72326;-21.06;-10.98;-29.82;117.547;-2.147;-4.071;14908;2021-02-11 20:50:51:186
0.60094;0.27773;9.83059;0.69572;0.36748;9.77504;-0.04238;-0.08326;0.06451;-0.01405;0.01588;-0.72326;-21.06;-10.98;-29.82;117.547;-2.147;-4.071;14938;2021-02-11 20:50:51:216
0.60094;0.27773;9.83059;0.62214;0.35879;9.78032;-0.04238;-0.08326;0.06451;-0.05681;0.05437;-0.68417;-21.06;-10.98;-29.82;117.547;-2.147;-4.071;14968;2021-02-11 20:50:51:246
0.60094;0.27773;9.83059;0.62214;0.35879;9.78032;-0.04238;-0.08326;0.06451;-0.05681;0.05437;-0.68417;-19.86;-12.0;-29.46;121.0;-2.097;-3.64;14998;2021-02-11 20:50:51:276
0.6177;0.30167;9.84256;0.62214;0.35879;9.78032;0.04162;-0.03778;0.05874;-0.05681;0.05437;-0.68417;-19.86;-12.0;-29.46;121.0;-2.097;-3.64;15027;2021-02-11 20:50:51:305
0.6177;0.30167;9.84256;0.54662;0.32024;9.78617;0.04162;-0.03778;0.05874;-0.05681;0.05437;-0.68417;-19.86;-12.0;-29.46;121.0;-2.097;-3.64;15058;2021-02-11 20:50:51:336
0.6177;0.30167;9.84256;0.54662;0.32024;9.78617;0.04162;-0.03778;0.05874;-0.09529;0.05925;-0.63163;-19.86;-12.0;-29.46;121.0;-2.097;-3.64;15089;2021-02-11 20:50:51:367
0.60334;0.29688;9.85693;0.54662;0.32024;9.78617;0.09331;0.01328;0.06766;-0.09529;0.05925;-0.63163;-18.48;-14.64;-30.18;130.623;-1.871;-3.197;15118;2021-02-11 20:50:51:396
0.60334;0.29688;9.85693;0.50555;0.27158;9.78984;0.09331;0.01328;0.06766;-0.09529;0.05925;-0.63163;-18.48;-14.64;-30.18;130.623;-1.871;-3.197;15148;2021-02-11 20:50:51:426
0.60334;0.29688;9.85693;0.50555;0.27158;9.78984;0.09331;0.01328;0.06766;-0.09529;0.05925;-0.63163;-18.48;-14.64;-30.18;130.623;-1.871;-3.197;15178;2021-02-11 20:50:51:456
0.59616;0.30646;9.86172;0.50555;0.27158;9.78984;0.11196;0.08082;0.06963;-0.11851;0.03176;-0.56139;-18.48;-14.64;-30.18;130.623;-1.871;-3.197;15208;2021-02-11 20:50:51:486
0.59616;0.30646;9.86172;0.50555;0.27158;9.78984;0.11196;0.08082;0.06963;-0.11851;0.03176;-0.56139;-16.98;-15.12;-30.9;132.542;-1.587;-2.956;15238;2021-02-11 20:50:51:516
0.59616;0.30646;9.86172;0.4841;0.20225;9.79261;0.11196;0.08082;0.06963;-0.11851;0.03176;-0.56139;-16.98;-15.12;-30.9;132.542;-1.587;-2.956;15267;2021-02-11 20:50:51:545
0.59616;0.30646;9.86172;0.4841;0.20225;9.79261;0.11196;0.08082;0.06963;-0.11851;0.03176;-0.56139;-16.98;-15.12;-30.9;132.542;-1.587;-2.956;15298;2021-02-11 20:50:51:576
0.55306;0.3304;9.87369;0.4841;0.20225;9.79261;0.06049;0.15932;0.08091;-0.10873;-0.01466;-0.4777;-16.98;-15.12;-30.9;132.542;-1.587;-2.956;15329;2021-02-11 20:50:51:607
0.55306;0.3304;9.87369;0.504;0.15425;9.79248;0.06049;0.15932;0.08091;-0.10873;-0.01466;-0.4777;-16.14;-15.24;-31.38;135.224;-0.901;-2.946;15358;2021-02-11 20:50:51:636
0.55306;0.3304;9.87369;0.504;0.15425;9.79248;0.06049;0.15932;0.08091;-0.10873;-0.01466;-0.4777;-16.14;-15.24;-31.38;135.224;-0.901;-2.946;15388;2021-02-11 20:50:51:666
0.58419;0.30646;9.90242;0.504;0.15425;9.79248;0.054;0.16656;0.11111;-0.10873;-0.01466;-0.4777;-16.14;-15.24;-31.38;135.224;-0.901;-2.946;15418;2021-02-11 20:50:51:696
0.58419;0.30646;9.90242;0.55177;0.13601;9.79017;0.054;0.16656;0.11111;-0.07391;-0.05803;-0.39218;-16.14;-15.24;-31.38;135.224;-0.901;-2.946;15448;2021-02-11 20:50:51:726
0.58419;0.30646;9.90242;0.55177;0.13601;9.79017;0.054;0.16656;0.11111;-0.07391;-0.05803;-0.39218;-16.08;-15.42;-31.44;135.65;-0.795;-3.226;15478;2021-02-11 20:50:51:756
0.55306;0.31843;9.90002;0.55177;0.13601;9.79017;-0.03593;0.1754;0.11212;-0.07391;-0.05803;-0.39218;-16.08;-15.42;-31.44;135.65;-0.795;-3.226;15508;2021-02-11 20:50:51:786
0.55306;0.31843;9.90002;0.55177;0.13601;9.79017;-0.03593;0.1754;0.11212;-0.07391;-0.05803;-0.39218;-16.08;-15.42;-31.44;135.65;-0.795;-3.226;15538;2021-02-11 20:50:51:816
0.55306;0.31843;9.90002;0.61522;0.15502;9.78611;-0.03593;0.1754;0.11212;-0.01894;-0.0898;-0.29077;-16.08;-15.42;-31.44;135.65;-0.795;-3.226;15568;2021-02-11 20:50:51:846
0.55306;0.31843;9.90002;0.61522;0.15502;9.78611;-0.03593;0.1754;0.11212;-0.01894;-0.0898;-0.29077;-14.76;-15.54;-31.14;139.947;-0.906;-3.597;15598;2021-02-11 20:50:51:876
0.55545;0.32801;9.90481;0.61522;0.15502;9.78611;-0.0988;0.1462;0.1217;-0.01894;-0.0898;-0.29077;-14.76;-15.54;-31.14;139.947;-0.906;-3.597;15627;2021-02-11 20:50:51:905
0.55545;0.32801;9.90481;0.67846;0.2055;9.78099;-0.0988;0.1462;0.1217;-0.01894;-0.0898;-0.29077;-14.76;-15.54;-31.14;139.947;-0.906;-3.597;15658;2021-02-11 20:50:51:936
0.55545;0.32801;9.90481;0.67846;0.2055;9.78099;-0.0988;0.1462;0.1217;0.03665;-0.09529;-0.18631;-14.76;-15.54;-31.14;139.947;-0.906;-3.597;15687;2021-02-11 20:50:51:965
0.55785;0.32801;9.90002;0.67846;0.2055;9.78099;-0.1373;0.07534;0.13179;0.03665;-0.09529;-0.18631;-14.88;-16.2;-31.14;140.092;-1.201;-3.968;15717;2021-02-11 20:50:51:995
0.55785;0.32801;9.90002;0.72627;0.27835;9.77576;-0.1373;0.07534;0.13179;0.03665;-0.09529;-0.18631;-14.88;-16.2;-31.14;140.092;-1.201;-3.968;15748;2021-02-11 20:50:52:026
0.56503;0.32322;9.88566;0.72627;0.27835;9.77576;-0.1373;0.07534;0.13179;0.03665;-0.09529;-0.18631;-14.88;-16.2;-31.14;140.092;-1.201;-3.968;15778;2021-02-11 20:50:52:056
0.56503;0.32322;9.88566;0.72627;0.27835;9.77576;-0.18337;0.00222;0.12925;0.07453;-0.07575;-0.08735;-14.88;-16.2;-31.14;140.092;-1.201;-3.968;15807;2021-02-11 20:50:52:085
0.56503;0.32322;9.88566;0.72627;0.27835;9.77576;-0.18337;0.00222;0.12925;0.07453;-0.07575;-0.08735;-14.1;-17.34;-31.5;144.053;-1.626;-4.249;15837;2021-02-11 20:50:52:115
0.56503;0.32322;9.88566;0.74351;0.35616;9.77194;-0.18337;0.00222;0.12925;0.07453;-0.07575;-0.08735;-14.1;-17.34;-31.5;144.053;-1.626;-4.249;15868;2021-02-11 20:50:52:146
0.55067;0.31603;9.88087;0.74351;0.35616;9.77194;-0.18337;0.00222;0.12925;0.07453;-0.07575;-0.08735;-14.1;-17.34;-31.5;144.053;-1.626;-4.249;15897;2021-02-11 20:50:52:175
0.55067;0.31603;9.88087;0.74351;0.35616;9.77194;-0.1605;-0.0636;0.10763;0.08919;-0.03238;0.0171;-14.1;-17.34;-31.5;144.053;-1.626;-4.249;15928;2021-02-11 20:50:52:206
0.55067;0.31603;9.88087;0.7285;0.41941;9.77056;-0.1605;-0.0636;0.10763;0.08919;-0.03238;0.0171;-14.16;-18.0;-28.86;144.748;-2.451;-4.264;15958;2021-02-11 20:50:52:236
0.56503;0.31364;9.90481;0.7285;0.41941;9.77056;-0.1605;-0.0636;0.10763;0.08919;-0.03238;0.0171;-14.16;-18.0;-28.86;144.748;-2.451;-4.264;15987;2021-02-11 20:50:52:265
0.56503;0.31364;9.90481;0.7285;0.41941;9.77056;-0.15372;-0.14714;0.1399;0.08919;-0.03238;0.0171;-14.16;-18.0;-28.86;144.748;-2.451;-4.264;16018;2021-02-11 20:50:52:296
0.56503;0.31364;9.90481;0.70403;0.48317;9.76941;-0.15372;-0.14714;0.1399;0.10629;0.04826;0.4612;-14.16;-18.0;-28.86;144.748;-2.451;-4.264;16047;2021-02-11 20:50:52:325
0.57461;0.32561;9.91918;0.70403;0.48317;9.76941;-0.15372;-0.14714;0.1399;0.10629;0.04826;0.4612;-14.52;-18.06;-30.12;142.104;-2.824;-4.122;16078;2021-02-11 20:50:52:356
0.57461;0.32561;9.91918;0.70403;0.48317;9.76941;-0.01733;-0.05808;0.11272;0.10629;0.04826;0.4612;-14.52;-18.06;-30.12;142.104;-2.824;-4.122;16108;2021-02-11 20:50:52:386
0.57461;0.32561;9.91918;0.70403;0.48317;9.76941;-0.01733;-0.05808;0.11272;0.10629;0.04826;0.4612;-14.52;-18.06;-30.12;142.104;-2.824;-4.122;16138;2021-02-11 20:50:52:416
0.58419;0.31843;9.88087;0.55639;0.3667;9.78398;-0.01733;-0.05808;0.11272;0.07575;0.09041;0.54184;-14.52;-18.06;-30.12;142.104;-2.824;-4.122;16168;2021-02-11 20:50:52:446
0.58419;0.31843;9.88087;0.55639;0.3667;9.78398;-0.01733;-0.05808;0.11272;0.07575;0.09041;0.54184;-14.1;-17.58;-29.64;143.909;-2.143;-3.255;16198;2021-02-11 20:50:52:476
0.58419;0.31843;9.88087;0.55639;0.3667;9.78398;0.05064;-0.05363;0.09525;0.07575;0.09041;0.54184;-14.1;-17.58;-29.64;143.909;-2.143;-3.255;16227;2021-02-11 20:50:52:505
0.58419;0.31843;9.88087;0.48437;0.38788;9.787;0.05064;-0.05363;0.09525;0.07575;0.09041;0.54184;-14.1;-17.58;-29.64;143.909;-2.143;-3.255;16258;2021-02-11 20:50:52:536
0.59376;0.31603;9.88087;0.48437;0.38788;9.787;0.05064;-0.05363;0.09525;0.03299;0.12339;0.61575;-14.1;-17.58;-29.64;143.909;-2.143;-3.255;16288;2021-02-11 20:50:52:566
0.59376;0.31603;9.88087;0.48437;0.38788;9.787;0.16135;-0.05319;0.09915;0.03299;0.12339;0.61575;-14.22;-16.92;-30.42;141.606;-2.267;-2.833;16318;2021-02-11 20:50:52:596
0.59376;0.31603;9.88087;0.44185;0.36347;9.78995;0.16135;-0.05319;0.09915;0.03299;0.12339;0.61575;-14.22;-16.92;-30.42;141.606;-2.267;-2.833;16347;2021-02-11 20:50:52:625
0.6177;0.31843;9.88087;0.44185;0.36347;9.78995;0.16135;-0.05319;0.09915;0.03299;0.12339;0.61575;-14.22;-16.92;-30.42;141.606;-2.267;-2.833;16378;2021-02-11 20:50:52:656
0.6177;0.31843;9.88087;0.44185;0.36347;9.78995;0.17907;-0.02307;0.07533;-6.1E-4;0.13073;0.67073;-14.22;-16.92;-30.42;141.606;-2.267;-2.833;16408;2021-02-11 20:50:52:686
0.6177;0.31843;9.88087;0.44185;0.36347;9.78995;0.17907;-0.02307;0.07533;-6.1E-4;0.13073;0.67073;-14.76;-16.68;-30.66;139.334;-2.124;-2.584;16438;2021-02-11 20:50:52:716
0.6177;0.31843;9.88087;0.43121;0.32189;9.79188;0.17907;-0.02307;0.07533;-6.1E-4;0.13073;0.67073;-14.76;-16.68;-30.66;139.334;-2.124;-2.584;16468;2021-02-11 20:50:52:746
0.60334;0.31603;9.87848;0.43121;0.32189;9.79188;0.17907;-0.02307;0.07533;-6.1E-4;0.13073;0.67073;-14.76;-16.68;-30.66;139.334;-2.124;-2.584;16498;2021-02-11 20:50:52:776
0.60334;0.31603;9.87848;0.43121;0.32189;9.79188;0.18647;0.03139;0.08348;-0.01955;0.11668;0.70555;-14.76;-16.68;-30.66;139.334;-2.124;-2.584;16528;2021-02-11 20:50:52:806
0.60334;0.31603;9.87848;0.43534;0.28567;9.79282;0.18647;0.03139;0.08348;-0.01955;0.11668;0.70555;-15.96;-16.08;-31.26;135.894;-1.669;-2.545;16557;2021-02-11 20:50:52:835
0.62489;0.33758;9.88326;0.43534;0.28567;9.79282;0.18647;0.03139;0.08348;-0.01955;0.11668;0.70555;-15.96;-16.08;-31.26;135.894;-1.669;-2.545;16587;2021-02-11 20:50:52:865
0.62489;0.33758;9.88326;0.43534;0.28567;9.79282;0.18035;0.05319;0.09303;-0.01955;0.11668;0.70555;-15.96;-16.08;-31.26;135.894;-1.669;-2.545;16618;2021-02-11 20:50:52:896
0.62489;0.33758;9.88326;0.46203;0.26216;9.79225;0.18035;0.05319;0.09303;-0.01894;0.08125;0.72693;-15.96;-16.08;-31.26;135.894;-1.669;-2.545;16648;2021-02-11 20:50:52:926
0.62489;0.31843;9.89045;0.46203;0.26216;9.79225;0.18035;0.05319;0.09303;-0.01894;0.08125;0.72693;-15.72;-14.7;-31.74;134.291;-1.532;-2.701;16678;2021-02-11 20:50:52:956
0.62489;0.31843;9.89045;0.46203;0.26216;9.79225;0.1603;0.06724;0.07975;-0.01894;0.08125;0.72693;-15.72;-14.7;-31.74;134.291;-1.532;-2.701;16708;2021-02-11 20:50:52:986
0.62489;0.31843;9.89045;0.46203;0.26216;9.79225;0.1603;0.06724;0.07975;-0.01894;0.08125;0.72693;-15.72;-14.7;-31.74;134.291;-1.532;-2.701;16738;2021-02-11 20:50:53:016
0.64165;0.32322;9.89763;0.49537;0.24936;9.79096;0.1603;0.06724;0.07975;0.0;0.03482;0.73365;-15.72;-14.7;-31.74;134.291;-1.532;-2.701;16767;2021-02-11 20:50:53:045
0.64165;0.32322;9.89763;0.49537;0.24936;9.79096;0.1603;0.06724;0.07975;0.0;0.03482;0.73365;-16.44;-14.34;-31.32;132.458;-1.457;-2.896;16798;2021-02-11 20:50:53:076
0.64165;0.32322;9.89763;0.49537;0.24936;9.79096;0.12923;0.06307;0.09857;0.0;0.03482;0.73365;-16.44;-14.34;-31.32;132.458;-1.457;-2.896;16828;2021-02-11 20:50:53:106
0.64165;0.32322;9.89763;0.54001;0.2533;9.78849;0.12923;0.06307;0.09857;0.0;0.03482;0.73365;-16.44;-14.34;-31.32;132.458;-1.457;-2.896;16858;2021-02-11 20:50:53:136
0.63686;0.31603;9.89524;0.54001;0.2533;9.78849;0.12923;0.06307;0.09857;0.0281;-0.00794;0.72449;-16.44;-14.34;-31.32;132.458;-1.457;-2.896;16888;2021-02-11 20:50:53:166
0.63686;0.31603;9.89524;0.54001;0.2533;9.78849;0.09883;0.04962;0.09651;0.0281;-0.00794;0.72449;-16.86;-13.92;-31.26;130.787;-1.48;-3.158;16917;2021-02-11 20:50:53:195
0.63686;0.31603;9.89524;0.59051;0.26184;9.78535;0.09883;0.04962;0.09651;0.0281;-0.00794;0.72449;-16.86;-13.92;-31.26;130.787;-1.48;-3.158;16948;2021-02-11 20:50:53:226
0.65122;0.31603;9.90002;0.59051;0.26184;9.78535;0.09883;0.04962;0.09651;0.0281;-0.00794;0.72449;-16.86;-13.92;-31.26;130.787;-1.48;-3.158;16978;2021-02-11 20:50:53:256
0.65122;0.31603;9.90002;0.59051;0.26184;9.78535;0.04267;0.04602;0.11891;0.06414;-0.0391;0.7025;-16.86;-13.92;-31.26;130.787;-1.48;-3.158;17008;2021-02-11 20:50:53:286
0.65122;0.31603;9.90002;0.59051;0.26184;9.78535;0.04267;0.04602;0.11891;0.06414;-0.0391;0.7025;-18.24;-13.38;-31.62;127.061;-1.53;-3.453;17038;2021-02-11 20:50:53:316
0.64883;0.32801;9.89045;0.64075;0.28439;9.78156;0.04267;0.04602;0.11891;0.06414;-0.0391;0.7025;-18.24;-13.38;-31.62;127.061;-1.53;-3.453;17068;2021-02-11 20:50:53:346
0.64883;0.32801;9.89045;0.64075;0.28439;9.78156;0.04267;0.04602;0.11891;0.06414;-0.0391;0.7025;-18.24;-13.38;-31.62;127.061;-1.53;-3.453;17098;2021-02-11 20:50:53:376
0.64883;0.32801;9.89045;0.64075;0.28439;9.78156;-0.05545;0.00366;0.10254;0.07269;-0.11301;6.1E-4;-18.24;-13.38;-31.62;127.061;-1.53;-3.453;17129;2021-02-11 20:50:53:407
0.64883;0.32801;9.89045;0.71387;0.33759;9.77481;-0.05545;0.00366;0.10254;0.07269;-0.11301;6.1E-4;-18.72;-12.6;-30.24;125.402;-1.973;-4.177;17158;2021-02-11 20:50:53:436
0.66319;0.31364;9.89284;0.71387;0.33759;9.77481;-0.05545;0.00366;0.10254;0.07269;-0.11301;6.1E-4;-18.72;-12.6;-30.24;125.402;-1.973;-4.177;17188;2021-02-11 20:50:53:466
0.66319;0.31364;9.89284;0.71387;0.33759;9.77481;-0.03487;-0.03135;0.12263;0.07269;-0.11301;6.1E-4;-18.72;-12.6;-30.24;125.402;-1.973;-4.177;17218;2021-02-11 20:50:53:496
0.66319;0.31364;9.89284;0.72147;0.36839;9.77313;-0.03487;-0.03135;0.12263;0.08858;-0.09652;-0.04032;-18.72;-12.6;-30.24;125.402;-1.973;-4.177;17248;2021-02-11 20:50:53:526
0.65601;0.30885;9.87129;0.72147;0.36839;9.77313;-0.03487;-0.03135;0.12263;0.08858;-0.09652;-0.04032;-18.9;-12.48;-30.12;122.865;-2.153;-4.222;17278;2021-02-11 20:50:53:556
0.65601;0.30885;9.87129;0.72147;0.36839;9.77313;-0.07436;-0.08636;0.13762;0.08858;-0.09652;-0.04032;-18.9;-12.48;-30.12;122.865;-2.153;-4.222;17308;2021-02-11 20:50:53:586
0.65601;0.30885;9.87129;0.72147;0.36839;9.77313;-0.07436;-0.08636;0.13762;0.08858;-0.09652;-0.04032;-18.9;-12.48;-30.12;122.865;-2.153;-4.222;17337;2021-02-11 20:50:53:615
0.67038;0.32801;9.88805;0.75589;0.42188;9.76837;-0.07436;-0.08636;0.13762;0.09041;-0.05742;-0.09163;-18.9;-12.48;-30.12;122.865;-2.153;-4.222;17368;2021-02-11 20:50:53:646
0.67038;0.32801;9.88805;0.75589;0.42188;9.76837;-0.07436;-0.08636;0.13762;0.09041;-0.05742;-0.09163;-19.68;-12.18;-29.52;121.108;-2.466;-4.425;17398;2021-02-11 20:50:53:676
0.67038;0.32801;9.88805;0.75589;0.42188;9.76837;-0.0937;-0.13688;0.07942;0.09041;-0.05742;-0.09163;-19.68;-12.18;-29.52;121.108;-2.466;-4.425;17428;2021-02-11 20:50:53:706
0.67038;0.32801;9.88805;0.7427;0.44488;9.76836;-0.0937;-0.13688;0.07942;0.09041;-0.05742;-0.09163;-19.68;-12.18;-29.52;121.108;-2.466;-4.425;17458;2021-02-11 20:50:53:736
0.66319;0.31364;9.85932;0.7427;0.44488;9.76836;-0.0937;-0.13688;0.07942;0.0733;-0.00855;-0.15027;-19.68;-12.18;-29.52;121.108;-2.466;-4.425;17488;2021-02-11 20:50:53:766
0.66319;0.31364;9.85932;0.7427;0.44488;9.76836;-0.05752;-0.14462;0.08242;0.0733;-0.00855;-0.15027;-21.12;-12.36;-30.0;119.496;-2.6;-4.348;17518;2021-02-11 20:50:53:796
0.66319;0.31364;9.85932;0.70382;0.45253;9.77089;-0.05752;-0.14462;0.08242;0.0733;-0.00855;-0.15027;-21.12;-12.36;-30.0;119.496;-2.6;-4.348;17548;2021-02-11 20:50:53:826
0.67995;0.32322;9.85932;0.70382;0.45253;9.77089;-0.05752;-0.14462;0.08242;0.04948;0.02627;-0.19975;-21.12;-12.36;-30.0;119.496;-2.6;-4.348;17577;2021-02-11 20:50:53:855
0.67995;0.32322;9.85932;0.70382;0.45253;9.77089;-0.00393;-0.14142;0.08241;0.04948;0.02627;-0.19975;-21.12;-12.36;-30.0;119.496;-2.6;-4.348;17607;2021-02-11 20:50:53:885
0.67995;0.32322;9.85932;0.70382;0.45253;9.77089;-0.00393;-0.14142;0.08241;0.04948;0.02627;-0.19975;-20.16;-11.4;-30.06;118.202;-2.645;-4.12;17637;2021-02-11 20:50:53:915
0.69192;0.31125;9.84735;0.65781;0.44881;9.77426;-0.00393;-0.14142;0.08241;0.04948;0.02627;-0.19975;-20.16;-11.4;-30.06;118.202;-2.645;-4.12;17668;2021-02-11 20:50:53:946
0.69192;0.31125;9.84735;0.65781;0.44881;9.77426;-0.00393;-0.14142;0.08241;0.01161;0.05437;-0.26389;-20.16;-11.4;-30.06;118.202;-2.645;-4.12;17699;2021-02-11 20:50:53:977
0.69192;0.31125;9.84735;0.65781;0.44881;9.77426;0.02737;-0.12509;0.06581;0.01161;0.05437;-0.26389;-20.16;-11.4;-30.06;118.202;-2.645;-4.12;17728;2021-02-11 20:50:54:006
0.69192;0.31125;9.84735;0.60974;0.42515;9.77844;0.02737;-0.12509;0.06581;0.01161;0.05437;-0.26389;-20.58;-11.04;-29.7;116.778;-2.485;-3.568;17758;2021-02-11 20:50:54:036
0.67516;0.32082;9.84735;0.60974;0.42515;9.77844;0.02737;-0.12509;0.06581;0.01161;0.05437;-0.26389;-20.58;-11.04;-29.7;116.778;-2.485;-3.568;17788;2021-02-11 20:50:54:066
0.67516;0.32082;9.84735;0.60974;0.42515;9.77844;0.094;-0.08661;0.07379;-0.02382;0.05681;-0.32132;-20.58;-11.04;-29.7;116.778;-2.485;-3.568;17817;2021-02-11 20:50:54:095
0.67516;0.32082;9.84735;0.57416;0.38999;9.78206;0.094;-0.08661;0.07379;-0.02382;0.05681;-0.32132;-20.58;-11.04;-29.7;116.778;-2.485;-3.568;17847;2021-02-11 20:50:54:125
0.65841;0.31364;9.84975;0.57416;0.38999;9.78206;0.094;-0.08661;0.07379;-0.02382;0.05681;-0.32132;-20.7;-10.86;-31.26;116.894;-2.279;-3.359;17877;2021-02-11 20:50:54:155
0.65841;0.31364;9.84975;0.57416;0.38999;9.78206;0.0968;-0.05829;0.07317;-0.02382;0.05681;-0.32132;-20.7;-10.86;-31.26;116.894;-2.279;-3.359;17908;2021-02-11 20:50:54:186
0.65841;0.31364;9.84975;0.57416;0.38999;9.78206;0.0968;-0.05829;0.07317;-0.05315;0.03054;-0.37874;-20.7;-10.86;-31.26;116.894;-2.279;-3.359;17938;2021-02-11 20:50:54:216
0.65601;0.34237;9.84975;0.55814;0.34743;9.78459;0.0968;-0.05829;0.07317;-0.05315;0.03054;-0.37874;-20.7;-10.86;-31.26;116.894;-2.279;-3.359;17970;2021-02-11 20:50:54:248
0.65601;0.34237;9.84975;0.55814;0.34743;9.78459;0.0968;-0.05829;0.07317;-0.05315;0.03054;-0.37874;-19.74;-10.5;-31.08;115.947;-2.03;-3.265;17998;2021-02-11 20:50:54:276
0.65601;0.34237;9.84975;0.55814;0.34743;9.78459;0.11772;-0.00334;0.09079;-0.05315;0.03054;-0.37874;-19.74;-10.5;-31.08;115.947;-2.03;-3.265;18028;2021-02-11 20:50:54:306
0.65601;0.34237;9.84975;0.5677;0.30966;9.78531;0.11772;-0.00334;0.09079;-0.0617;-0.01955;-0.42883;-19.74;-10.5;-31.08;115.947;-2.03;-3.265;18058;2021-02-11 20:50:54:336
0.64404;0.31843;9.87369;0.5677;0.30966;9.78531;0.11772;-0.00334;0.09079;-0.0617;-0.01955;-0.42883;-19.74;-10.5;-31.08;115.947;-2.03;-3.265;18087;2021-02-11 20:50:54:365
0.64404;0.31843;9.87369;0.5677;0.30966;9.78531;0.06802;0.03125;0.06974;-0.0617;-0.01955;-0.42883;-19.14;-9.96;-31.68;117.611;-1.81;-3.32;18117;2021-02-11 20:50:54:395
0.66559;0.33998;9.89045;0.60208;0.27468;9.7843;0.06802;0.03125;0.06974;-0.0617;-0.01955;-0.42883;-19.14;-9.96;-31.68;117.611;-1.81;-3.32;18148;2021-02-11 20:50:54:426
0.66559;0.33998;9.89045;0.60208;0.27468;9.7843;0.06802;0.03125;0.06974;-0.07514;-0.06231;-0.23885;-19.14;-9.96;-31.68;117.611;-1.81;-3.32;18179;2021-02-11 20:50:54:457
0.66559;0.33998;9.89045;0.60208;0.27468;9.7843;0.02513;0.06446;0.12236;-0.07514;-0.06231;-0.23885;-19.14;-9.96;-31.68;117.611;-1.81;-3.32;18208;2021-02-11 20:50:54:486
0.66559;0.33998;9.89045;0.60208;0.27468;9.7843;0.02513;0.06446;0.12236;-0.07514;-0.06231;-0.23885;-20.52;-10.44;-30.72;115.509;-1.605;-3.521;18238;2021-02-11 20:50:54:516
0.63207;0.32561;9.92876;0.66147;0.26835;9.78064;0.02513;0.06446;0.12236;-0.07514;-0.06231;-0.23885;-20.52;-10.44;-30.72;115.509;-1.605;-3.521;18268;2021-02-11 20:50:54:546
0.63207;0.32561;9.92876;0.66147;0.26835;9.78064;0.02513;0.06446;0.12236;-0.04704;-0.10812;-0.27;-20.52;-10.44;-30.72;115.509;-1.605;-3.521;18298;2021-02-11 20:50:54:576
0.63207;0.32561;9.92876;0.66147;0.26835;9.78064;-0.06467;0.04479;0.1604;-0.04704;-0.10812;-0.27;-20.52;-10.44;-30.72;115.509;-1.605;-3.521;18328;2021-02-11 20:50:54:606
0.63207;0.32082;9.94312;0.73013;0.26972;9.77571;-0.06467;0.04479;0.1604;-0.04704;-0.10812;-0.27;-19.86;-11.4;-32.16;119.849;-1.576;-4.271;18358;2021-02-11 20:50:54:636
0.63207;0.32082;9.94312;0.73013;0.26972;9.77571;-0.06467;0.04479;0.1604;-0.04704;-0.10812;-0.27;-19.86;-11.4;-32.16;119.849;-1.576;-4.271;18388;2021-02-11 20:50:54:666
0.63207;0.32082;9.94312;0.73013;0.26972;9.77571;-0.13274;0.04203;0.16332;-0.00916;-0.13195;-0.29077;-19.86;-11.4;-32.16;119.849;-1.576;-4.271;18419;2021-02-11 20:50:54:697
0.64643;0.30167;9.9527;0.78468;0.28974;9.77091;-0.13274;0.04203;0.16332;-0.00916;-0.13195;-0.29077;-19.86;-11.4;-32.16;119.849;-1.576;-4.271;18447;2021-02-11 20:50:54:725
0.64643;0.30167;9.9527;0.78468;0.28974;9.77091;-0.13274;0.04203;0.16332;-0.00916;-0.13195;-0.29077;-20.1;-11.16;-31.02;119.896;-1.693;-4.591;18478;2021-02-11 20:50:54:756
0.64643;0.30167;9.9527;0.78468;0.28974;9.77091;-0.16825;0.00176;0.15454;-0.00916;-0.13195;-0.29077;-20.1;-11.16;-31.02;119.896;-1.693;-4.591;18508;2021-02-11 20:50:54:786
0.63686;0.31603;9.93833;0.78468;0.28974;9.77091;-0.16825;0.00176;0.15454;0.01894;-0.12401;-0.29993;-20.1;-11.16;-31.02;119.896;-1.693;-4.591;18538;2021-02-11 20:50:54:816
0.63686;0.31603;9.93833;0.79724;0.32356;9.76883;-0.16825;0.00176;0.15454;0.01894;-0.12401;-0.29993;-20.1;-11.16;-31.02;119.896;-1.693;-4.591;18568;2021-02-11 20:50:54:846
0.63686;0.31603;9.93833;0.79724;0.32356;9.76883;-0.18191;-0.04614;0.14085;0.01894;-0.12401;-0.29993;-20.04;-12.18;-30.9;122.095;-1.891;-4.666;18599;2021-02-11 20:50:54:877
0.61292;0.29928;9.90721;0.79724;0.32356;9.76883;-0.18191;-0.04614;0.14085;0.01894;-0.12401;-0.29993;-20.04;-12.18;-30.9;122.095;-1.891;-4.666;18628;2021-02-11 20:50:54:906
0.61292;0.29928;9.90721;0.77978;0.35334;9.76921;-0.18191;-0.04614;0.14085;0.03604;-0.08858;-0.30055;-20.04;-12.18;-30.9;122.095;-1.891;-4.666;18657;2021-02-11 20:50:54:935
0.61292;0.29928;9.90721;0.77978;0.35334;9.76921;-0.18191;-0.04614;0.14085;0.03604;-0.08858;-0.30055;-20.04;-12.18;-30.9;122.095;-1.891;-4.666;18688;2021-02-11 20:50:54:966
0.61292;0.29928;9.90721;0.77978;0.35334;9.76921;-0.13029;-0.05909;0.11819;0.03604;-0.08858;-0.30055;-19.26;-12.0;-30.36;123.269;-2.065;-4.564;18718;2021-02-11 20:50:54:996
0.62489;0.30885;9.85214;0.75402;0.37671;9.77036;-0.13029;-0.05909;0.11819;0.03604;-0.08858;-0.30055;-19.26;-12.0;-30.36;123.269;-2.065;-4.564;18748;2021-02-11 20:50:55:026
0.62489;0.30885;9.85214;0.75402;0.37671;9.77036;-0.13029;-0.05909;0.11819;0.02932;-0.03787;-0.29199;-19.26;-12.0;-30.36;123.269;-2.065;-4.564;18778;2021-02-11 20:50:55:056
0.62489;0.30885;9.85214;0.75402;0.37671;9.77036;-0.10929;-0.07187;0.10456;0.02932;-0.03787;-0.29199;-19.26;-12.0;-30.36;123.269;-2.065;-4.564;18808;2021-02-11 20:50:55:086
0.61292;0.32322;9.86411;0.71834;0.3894;9.77255;-0.10929;-0.07187;0.10456;0.02932;-0.03787;-0.29199;-19.56;-12.6;-30.48;123.752;-2.201;-4.413;18838;2021-02-11 20:50:55:116
0.61292;0.32322;9.86411;0.71834;0.3894;9.77255;-0.10929;-0.07187;0.10456;0.02932;-0.03787;-0.29199;-19.56;-12.6;-30.48;123.752;-2.201;-4.413;18868;2021-02-11 20:50:55:146
0.61292;0.32322;9.86411;0.71834;0.3894;9.77255;-0.10929;-0.07187;0.10456;0.00672;0.00794;-0.27672;-19.56;-12.6;-30.48;123.752;-2.201;-4.413;18898;2021-02-11 20:50:55:176
0.6177;0.30406;9.85932;0.71834;0.3894;9.77255;-0.07852;-0.071;0.09929;0.00672;0.00794;-0.27672;-19.56;-12.6;-30.48;123.752;-2.201;-4.413;18928;2021-02-11 20:50:55:206
0.6177;0.30406;9.85932;0.67084;0.38854;9.77596;-0.07852;-0.071;0.09929;0.00672;0.00794;-0.27672;-19.86;-13.02;-30.48;123.282;-2.271;-3.926;18958;2021-02-11 20:50:55:236
0.6177;0.30406;9.85932;0.67084;0.38854;9.77596;-0.07852;-0.071;0.09929;0.00672;0.00794;-0.27672;-19.86;-13.02;-30.48;123.282;-2.271;-3.926;18988;2021-02-11 20:50:55:266
0.6177;0.30406;9.85932;0.67084;0.38854;9.77596;-0.03082;-0.05515;0.08562;-0.03176;0.04337;-0.25107;-19.86;-13.02;-30.48;123.282;-2.271;-3.926;19018;2021-02-11 20:50:55:296
0.61531;0.31843;9.86411;0.61675;0.36758;9.78033;-0.03082;-0.05515;0.08562;-0.03176;0.04337;-0.25107;-19.86;-13.02;-30.48;123.282;-2.271;-3.926;19048;2021-02-11 20:50:55:326
0.61531;0.31843;9.86411;0.61675;0.36758;9.78033;-0.03082;-0.05515;0.08562;-0.03176;0.04337;-0.25107;-18.54;-13.44;-30.66;124.716;-2.148;-3.608;19078;2021-02-11 20:50:55:356
0.61531;0.31843;9.86411;0.61675;0.36758;9.78033;0.03436;-0.01463;0.05218;-0.03176;0.04337;-0.25107;-18.54;-13.44;-30.66;124.716;-2.148;-3.608;19110;2021-02-11 20:50:55:388
0.60334;0.33519;9.88087;0.61675;0.36758;9.78033;0.03436;-0.01463;0.05218;-0.06536;0.05131;-0.2193;-18.54;-13.44;-30.66;124.716;-2.148;-3.608;19138;2021-02-11 20:50:55:416
0.60334;0.33519;9.88087;0.56208;0.32525;9.78512;0.03436;-0.01463;0.05218;-0.06536;0.05131;-0.2193;-18.54;-13.44;-30.66;124.716;-2.148;-3.608;19167;2021-02-11 20:50:55:445
0.60334;0.33519;9.88087;0.56208;0.32525;9.78512;0.03436;-0.01463;0.05218;-0.06536;0.05131;-0.2193;-18.54;-14.04;-31.14;126.948;-1.901;-3.288;19197;2021-02-11 20:50:55:475
0.59616;0.33279;9.87129;0.56208;0.32525;9.78512;0.07071;0.01991;0.0502;-0.06536;0.05131;-0.2193;-18.54;-14.04;-31.14;126.948;-1.901;-3.288;19227;2021-02-11 20:50:55:505
0.59616;0.33279;9.87129;0.50544;0.26264;9.79009;0.07071;0.01991;0.0502;-0.07453;0.08063;0.08735;-18.54;-14.04;-31.14;126.948;-1.901;-3.288;19257;2021-02-11 20:50:55:535
0.59616;0.33279;9.87129;0.50544;0.26264;9.79009;0.07071;0.01991;0.0502;-0.07453;0.08063;0.08735;-18.54;-14.04;-31.14;126.948;-1.901;-3.288;19287;2021-02-11 20:50:55:565
0.60094;0.33998;9.88087;0.50544;0.26264;9.79009;0.08365;0.05433;0.10185;-0.07453;0.08063;0.08735;-17.64;-14.28;-31.08;128.742;-1.535;-2.955;19318;2021-02-11 20:50:55:596
0.60094;0.33998;9.88087;0.55162;0.27385;9.78729;0.08365;0.05433;0.10185;-0.07453;0.08063;0.08735;-17.64;-14.28;-31.08;128.742;-1.535;-2.955;19348;2021-02-11 20:50:55:626
0.60094;0.33998;9.88087;0.55162;0.27385;9.78729;0.08365;0.05433;0.10185;-0.07514;0.04154;0.12584;-17.64;-14.28;-31.08;128.742;-1.535;-2.955;19378;2021-02-11 20:50:55:656
0.60094;0.33998;9.88087;0.55162;0.27385;9.78729;0.06337;0.05217;0.05755;-0.07514;0.04154;0.12584;-17.64;-14.28;-31.08;128.742;-1.535;-2.955;19408;2021-02-11 20:50:55:686
0.60813;0.32322;9.84017;0.55468;0.23784;9.78806;0.06337;0.05217;0.05755;-0.07514;0.04154;0.12584;-17.52;-14.46;-31.08;128.918;-1.6;-3.226;19440;2021-02-11 20:50:55:718
0.60813;0.32322;9.84017;0.55468;0.23784;9.78806;0.06337;0.05217;0.05755;-0.07514;0.04154;0.12584;-17.52;-14.46;-31.08;128.918;-1.6;-3.226;19468;2021-02-11 20:50:55:746
0.60813;0.32322;9.84017;0.55468;0.23784;9.78806;0.06248;0.11069;0.09296;-0.0562;-0.00489;0.16493;-17.52;-14.46;-31.08;128.918;-1.6;-3.226;19498;2021-02-11 20:50:55:776
0.61052;0.32801;9.89763;0.55468;0.23784;9.78806;0.06248;0.11069;0.09296;-0.0562;-0.00489;0.16493;-17.52;-14.46;-31.08;128.918;-1.6;-3.226;19528;2021-02-11 20:50:55:806
0.61052;0.32801;9.89763;0.57711;0.21435;9.78731;0.06248;0.11069;0.09296;-0.0562;-0.00489;0.16493;-17.64;-14.46;-31.62;129.533;-1.252;-3.375;19558;2021-02-11 20:50:55:836
0.61052;0.32801;9.89763;0.57711;0.21435;9.78731;0.06248;0.11069;0.09296;-0.0562;-0.00489;0.16493;-17.64;-14.46;-31.62;129.533;-1.252;-3.375;19588;2021-02-11 20:50:55:866
0.60573;0.32801;9.89524;0.57711;0.21435;9.78731;0.01359;0.13276;0.09964;-0.02138;-0.04154;0.19975;-17.64;-14.46;-31.62;129.533;-1.252;-3.375;19618;2021-02-11 20:50:55:896
0.60573;0.32801;9.89524;0.61692;0.21616;9.78484;0.01359;0.13276;0.09964;-0.02138;-0.04154;0.19975;-17.64;-14.46;-31.62;129.533;-1.252;-3.375;19648;2021-02-11 20:50:55:926
0.60573;0.32801;9.89524;0.61692;0.21616;9.78484;0.01359;0.13276;0.09964;-0.02138;-0.04154;0.19975;-17.88;-14.34;-31.68;129.753;-1.263;-3.608;19678;2021-02-11 20:50:55:956
0.60573;0.32801;9.89524;0.61692;0.21616;9.78484;-0.03222;0.10019;0.13164;-0.02138;-0.04154;0.19975;-17.88;-14.34;-31.68;129.753;-1.263;-3.608;19708;2021-02-11 20:50:55:986
0.60334;0.32561;9.90721;0.61692;0.21616;9.78484;-0.03222;0.10019;0.13164;0.01772;-0.06109;0.23457;-17.88;-14.34;-31.68;129.753;-1.263;-3.608;19738;2021-02-11 20:50:56:016
0.60334;0.32561;9.90721;0.66306;0.23923;9.78128;-0.03222;0.10019;0.13164;0.01772;-0.06109;0.23457;-17.88;-14.34;-31.68;129.753;-1.263;-3.608;19768;2021-02-11 20:50:56:046
0.60334;0.32561;9.90721;0.66306;0.23923;9.78128;-0.03222;0.10019;0.13164;0.01772;-0.06109;0.23457;-17.34;-13.8;-31.26;131.635;-1.398;-3.878;19798;2021-02-11 20:50:56:076
0.39504;0.13886;9.4164;0.66306;0.23923;9.78128;-0.28756;-0.11988;-0.36305;0.01772;-0.06109;0.23457;-17.34;-13.8;-31.26;131.635;-1.398;-3.878;19827;2021-02-11 20:50:56:105
0.39504;0.13886;9.4164;0.63881;0.2551;9.7825;-0.28756;-0.11988;-0.36305;0.02443;-0.01161;0.2419;-17.34;-13.8;-31.26;131.635;-1.398;-3.878;19859;2021-02-11 20:50:56:137
0.39504;0.13886;9.4164;0.63881;0.2551;9.7825;-0.28756;-0.11988;-0.36305;0.02443;-0.01161;0.2419;-17.34;-13.8;-31.26;131.635;-1.398;-3.878;19887;2021-02-11 20:50:56:165
0.23942;0.30167;9.87608;0.63881;0.2551;9.7825;-0.30039;0.06101;0.08726;0.02443;-0.01161;0.2419;-17.88;-13.74;-31.02;129.54;-1.491;-3.736;19917;2021-02-11 20:50:56:195
0.23942;0.30167;9.87608;0.5059;0.24957;9.79041;-0.30039;0.06101;0.08726;0.02443;-0.01161;0.2419;-17.88;-13.74;-31.02;129.54;-1.491;-3.736;19948;2021-02-11 20:50:56:226
0.23942;0.30167;9.87608;0.5059;0.24957;9.79041;-0.30039;0.06101;0.08726;0.03665;0.05192;0.27978;-17.88;-13.74;-31.02;129.54;-1.491;-3.736;19978;2021-02-11 20:50:56:256
0.81163;0.27533;9.83538;0.5059;0.24957;9.79041;0.33092;0.00506;0.04425;0.03665;0.05192;0.27978;-17.88;-13.74;-31.02;129.54;-1.491;-3.736;20008;2021-02-11 20:50:56:286
0.81163;0.27533;9.83538;0.49059;0.27601;9.79048;0.33092;0.00506;0.04425;0.03665;0.05192;0.27978;-17.94;-13.92;-30.9;128.836;-1.458;-2.958;20038;2021-02-11 20:50:56:316
0.81163;0.27533;9.83538;0.49059;0.27601;9.79048;0.33092;0.00506;0.04425;0.03665;0.05192;0.27978;-17.94;-13.92;-30.9;128.836;-1.458;-2.958;20068;2021-02-11 20:50:56:346
0.81163;0.27533;9.83538;0.49059;0.27601;9.79048;0.33092;0.00506;0.04425;0.01527;0.06048;0.20769;-17.94;-13.92;-30.9;128.836;-1.458;-2.958;20098;2021-02-11 20:50:56:376
0.54588;0.21069;9.84496;0.49059;0.27601;9.79048;0.05898;-0.05091;0.0539;0.01527;0.06048;0.20769;-17.94;-13.92;-30.9;128.836;-1.458;-2.958;20128;2021-02-11 20:50:56:406
0.54588;0.21069;9.84496;0.47115;0.25805;9.79193;0.05898;-0.05091;0.0539;0.01527;0.06048;0.20769;-18.72;-13.8;-30.54;126.954;-1.508;-2.755;20158;2021-02-11 20:50:56:436
0.54588;0.21069;9.84496;0.47115;0.25805;9.79193;0.05898;-0.05091;0.0539;0.01527;0.06048;0.20769;-18.72;-13.8;-30.54;126.954;-1.508;-2.755;20188;2021-02-11 20:50:56:466
0.58419;0.2897;9.77313;0.47115;0.25805;9.79193;0.12772;0.0271;-0.01937;0.011;0.0733;0.21014;-18.72;-13.8;-30.54;126.954;-1.508;-2.755;20218;2021-02-11 20:50:56:496
0.58419;0.2897;9.77313;0.45562;0.25834;9.79265;0.12772;0.0271;-0.01937;0.011;0.0733;0.21014;-18.72;-13.8;-30.54;126.954;-1.508;-2.755;20248;2021-02-11 20:50:56:526
0.58419;0.2897;9.77313;0.45562;0.25834;9.79265;0.12772;0.0271;-0.01937;0.011;0.0733;0.21014;-17.82;-13.92;-30.9;128.502;-1.51;-2.664;20278;2021-02-11 20:50:56:556
0.51475;0.29688;9.85214;0.45562;0.25834;9.79265;0.07104;0.05776;0.05845;0.011;0.0733;0.21014;-17.82;-13.92;-30.9;128.502;-1.51;-2.664;20308;2021-02-11 20:50:56:586
0.51475;0.29688;9.85214;0.42825;0.2297;9.7946;0.07104;0.05776;0.05845;-0.02443;0.06597;0.15516;-17.82;-13.92;-30.9;128.502;-1.51;-2.664;20338;2021-02-11 20:50:56:616
0.51475;0.29688;9.85214;0.42825;0.2297;9.7946;0.07104;0.05776;0.05845;-0.02443;0.06597;0.15516;-17.82;-13.92;-30.9;128.502;-1.51;-2.664;20368;2021-02-11 20:50:56:646
0.57221;0.2083;9.95509;0.42825;0.2297;9.7946;0.07104;0.05776;0.05845;-0.02443;0.06597;0.15516;-17.52;-14.4;-31.26;128.553;-1.342;-2.504;20398;2021-02-11 20:50:56:676
0.57221;0.2083;9.95509;0.42825;0.2297;9.7946;0.08541;0.02205;0.00864;-0.02443;0.06597;0.15516;-17.52;-14.4;-31.26;128.553;-1.342;-2.504;20429;2021-02-11 20:50:56:707
0.57221;0.2083;9.95509;0.41064;0.19893;9.79603;0.08541;0.02205;0.00864;-0.04032;0.06414;0.13622;-17.52;-14.4;-31.26;128.553;-1.342;-2.504;20458;2021-02-11 20:50:56:736
0.48842;0.20111;9.90481;0.41064;0.19893;9.79603;0.08541;0.02205;0.00864;-0.04032;0.06414;0.13622;-17.52;-14.4;-31.26;128.553;-1.342;-2.504;20487;2021-02-11 20:50:56:765
0.48842;0.20111;9.90481;0.41064;0.19893;9.79603;-0.06677;0.08453;0.19399;-0.04032;0.06414;0.13622;-17.64;-14.28;-30.3;128.642;-1.162;-2.4;20521;2021-02-11 20:50:56:799
0.48842;0.20111;9.90481;0.37789;0.16068;9.79805;-0.06677;0.08453;0.19399;-0.04032;0.06414;0.13622;-17.64;-14.28;-30.3;128.642;-1.162;-2.4;20548;2021-02-11 20:50:56:826
0.29449;0.30406;9.85214;0.37789;0.16068;9.79805;-0.06677;0.08453;0.19399;-0.04826;0.05559;0.13317;-17.64;-14.28;-30.3;128.642;-1.162;-2.4;20578;2021-02-11 20:50:56:856
0.29449;0.30406;9.85214;0.37789;0.16068;9.79805;-0.02239;0.18945;0.12229;-0.04826;0.05559;0.13317;-17.64;-14.28;-30.3;128.642;-1.162;-2.4;20608;2021-02-11 20:50:56:886
0.29449;0.30406;9.85214;0.37789;0.16068;9.79805;-0.02239;0.18945;0.12229;-0.04826;0.05559;0.13317;-18.42;-13.74;-30.72;128.755;-0.939;-2.209;20637;2021-02-11 20:50:56:915
0.29449;0.30406;9.85214;0.32848;0.16623;9.79974;-0.02239;0.18945;0.12229;-0.04826;0.05559;0.13317;-18.42;-13.74;-30.72;128.755;-0.939;-2.209;20668;2021-02-11 20:50:56:946
0.44532;0.36152;9.96706;0.32848;0.16623;9.79974;-0.02239;0.18945;0.12229;-0.00733;0.05437;0.22113;-18.42;-13.74;-30.72;128.755;-0.939;-2.209;20698;2021-02-11 20:50:56:976
0.44532;0.36152;9.96706;0.32848;0.16623;9.79974;0.18893;0.05308;-0.07254;-0.00733;0.05437;0.22113;-18.42;-13.74;-30.72;128.755;-0.939;-2.209;20728;2021-02-11 20:50:57:006
0.44532;0.36152;9.96706;0.31532;0.17144;9.80008;0.18893;0.05308;-0.07254;-0.00733;0.05437;0.22113;-17.94;-13.2;-31.56;126.232;-1.002;-1.843;20758;2021-02-11 20:50:57:036
0.32082;-0.02394;10.09874;0.31532;0.17144;9.80008;0.18893;0.05308;-0.07254;-0.00733;0.05437;0.22113;-17.94;-13.2;-31.56;126.232;-1.002;-1.843;20787;2021-02-11 20:50:57:065
0.32082;-0.02394;10.09874;0.31532;0.17144;9.80008;-0.07437;-0.10869;0.31764;-0.03482;0.04154;0.20464;-17.94;-13.2;-31.56;126.232;-1.002;-1.843;20818;2021-02-11 20:50:57:096
0.32082;-0.02394;10.09874;0.3047;0.13293;9.80101;-0.07437;-0.10869;0.31764;-0.03482;0.04154;0.20464;-17.94;-13.2;-31.56;126.232;-1.002;-1.843;20848;2021-02-11 20:50:57:126
0.46208;0.4142;9.7037;0.3047;0.13293;9.80101;-0.07437;-0.10869;0.31764;-0.03482;0.04154;0.20464;-17.22;-13.56;-31.68;130.282;-0.777;-1.781;20878;2021-02-11 20:50:57:156
0.46208;0.4142;9.7037;0.3047;0.13293;9.80101;0.25942;0.21297;-0.02821;-0.03482;0.04154;0.20464;-17.22;-13.56;-31.68;130.282;-0.777;-1.781;20908;2021-02-11 20:50:57:186
