ACCELEROMETER X (m/s²);ACCELEROMETER Y (m/s²);ACCELEROMETER Z (m/s²);GRAVITY X (m/s²);GRAVITY Y (m/s²);GRAVITY Z (m/s²);LINEAR ACCELERATION X (m/s²);LINEAR ACCELERATION Y (m/s²);LINEAR ACCELERATION Z (m/s²);GYROSCOPE X (rad/s);GYROSCOPE Y (rad/s);GYROSCOPE Z (rad/s);MAGNETIC FIELD X (μT);MAGNETIC FIELD Y (μT);MAGNETIC FIELD Z (μT);ORIENTATION Z (azimuth °);ORIENTATION X (pitch °);ORIENTATION Y (roll °);Time since start in ms ;YYYY-MO-DD HH-MI-SS_SSS
9.5385;0.74939;-0.51236;9.74573;0.77385;-0.76965;0.0901;0.01949;0.00943;0.33598;-0.1405;0.0055;-35.7;-11.94;-9.48;231.656;-4.683;-93.981;26;2021-02-12 15:47:55:694
9.5385;0.74939;-0.51236;9.74573;0.77385;-0.76965;-0.06596;0.07421;0.17716;0.48014;-0.09102;-0.00977;-35.82;-13.14;-8.04;226.725;-4.526;-94.515;76;2021-02-12 15:47:55:744
9.67018;0.80924;-0.56743;9.74401;0.75989;-0.80457;-0.06596;0.07421;0.17716;0.48014;-0.09102;-0.00977;-35.82;-13.14;-8.04;226.725;-4.526;-94.515;126;2021-02-12 15:47:55:794
9.67018;0.80924;-0.56743;9.74401;0.75989;-0.80457;0.0034;0.03096;0.21625;0.48014;-0.09102;-0.00977;-34.92;-13.2;-5.58;220.711;-4.444;-94.72;176;2021-02-12 15:47:55:844
9.56723;0.73981;-0.54348;9.7453;0.75406;-0.7943;0.0034;0.03096;0.21625;0.61148;0.0562;-0.03543;-34.92;-13.2;-5.58;220.711;-4.444;-94.72;226;2021-02-12 15:47:55:894
9.56723;0.73981;-0.54348;9.7453;0.75406;-0.7943;-0.02408;0.01213;0.20667;0.61148;0.0562;-0.03543;-34.92;-13.2;-5.58;220.711;-4.444;-94.72;277;2021-02-12 15:47:55:945
9.64384;0.73502;-0.54588;9.74918;0.75783;-0.74129;-0.02408;0.01213;0.20667;0.72082;0.10018;-0.06964;-35.7;-14.64;-4.98;212.892;-4.41;-94.66;327;2021-02-12 15:47:55:995
9.64384;0.73502;-0.54588;9.74918;0.75783;-0.74129;-0.04312;-0.02963;0.10944;0.72082;0.10018;-0.06964;-35.7;-14.64;-4.98;212.892;-4.41;-94.66;377;2021-02-12 15:47:56:045
9.63427;0.71826;-0.56743;9.75341;0.7821;-0.6555;-0.04312;-0.02963;0.10944;0.83261;0.17654;-0.1069;-35.34;-14.52;-4.2;207.474;-4.574;-93.845;426;2021-02-12 15:47:56:094
9.63427;0.71826;-0.56743;9.75341;0.7821;-0.6555;-0.05869;-0.11785;0.0104;0.83261;0.17654;-0.1069;-35.34;-14.52;-4.2;207.474;-4.574;-93.845;477;2021-02-12 15:47:56:145
9.77553;0.68953;-0.57221;9.7562;0.83013;-0.54565;-0.05869;-0.11785;0.0104;0.83261;0.17654;-0.1069;-35.04;-15.78;-2.1;196.914;-4.856;-93.201;530;2021-02-12 15:47:56:198
9.77553;0.68953;-0.57221;9.7562;0.83013;-0.54565;-0.01494;-0.18192;-0.09843;0.94195;0.20525;-0.13928;-35.04;-15.78;-2.1;196.914;-4.856;-93.201;577;2021-02-12 15:47:56:245
9.77313;0.68474;-0.55545;9.75729;0.87528;-0.44675;-0.01494;-0.18192;-0.09843;0.94195;0.20525;-0.13928;-35.04;-15.78;-2.1;196.914;-4.856;-93.201;626;2021-02-12 15:47:56:294
9.77313;0.68474;-0.55545;9.75729;0.87528;-0.44675;0.02752;-0.22768;-0.11355;1.04153;0.22113;-0.15149;-33.6;-16.74;0.48;186.383;-5.121;-92.622;676;2021-02-12 15:47:56:344
9.83778;0.66798;-0.5387;9.75814;0.8917;-0.39254;0.02752;-0.22768;-0.11355;1.04153;0.22113;-0.15149;-33.6;-16.74;0.48;186.383;-5.121;-92.622;727;2021-02-12 15:47:56:395
9.83778;0.66798;-0.5387;9.75814;0.8917;-0.39254;0.02629;-0.24475;-0.13976;1.04153;0.22113;-0.15149;-33.84;-17.28;1.8;177.385;-5.217;-92.304;777;2021-02-12 15:47:56:445
9.77792;0.62249;-0.5363;9.75972;0.87913;-0.38125;0.02629;-0.24475;-0.13976;1.14598;0.16921;-0.12889;-33.84;-17.28;1.8;177.385;-5.217;-92.304;827;2021-02-12 15:47:56:495
9.77792;0.62249;-0.5363;9.75972;0.87913;-0.38125;-0.0219;-0.23944;-0.11245;1.14598;0.16921;-0.12889;-33.84;-17.28;1.8;177.385;-5.217;-92.304;877;2021-02-12 15:47:56:545
9.79229;0.63207;-0.50757;9.76282;0.83909;-0.39208;-0.0219;-0.23944;-0.11245;1.25105;0.11851;-0.07636;-32.76;-18.0;3.0;173.481;-5.143;-92.237;926;2021-02-12 15:47:56:594
9.79229;0.63207;-0.50757;9.76282;0.83909;-0.39208;-0.01358;-0.2128;-0.08428;1.25105;0.11851;-0.07636;-32.76;-18.0;3.0;173.481;-5.143;-92.237;976;2021-02-12 15:47:56:644
9.76355;0.60573;-0.50996;9.76689;0.77979;-0.41259;-0.01358;-0.2128;-0.08428;1.34268;0.11545;-0.01772;-31.98;-17.28;6.3;162.106;-4.561;-92.419;1027;2021-02-12 15:47:56:695
9.76355;0.60573;-0.50996;9.76689;0.77979;-0.41259;-0.05198;-0.14601;-0.0588;1.34268;0.11545;-0.01772;-31.98;-17.28;6.3;162.106;-4.561;-92.419;1077;2021-02-12 15:47:56:745
9.70609;0.5794;-0.48363;9.77228;0.69966;-0.42823;-0.05198;-0.14601;-0.0588;1.34268;0.11545;-0.01772;-31.68;-16.26;9.54;147.814;-4.091;-92.509;1126;2021-02-12 15:47:56:794
9.70609;0.5794;-0.48363;9.77228;0.69966;-0.42823;-0.0701;-0.0965;-0.04536;1.43431;0.09835;0.03054;-31.68;-16.26;9.54;147.814;-4.091;-92.509;1177;2021-02-12 15:47:56:845
9.71328;0.57461;-0.4525;9.77887;0.60159;-0.42695;-0.0701;-0.0965;-0.04536;1.43431;0.09835;0.03054;-31.68;-16.26;9.54;147.814;-4.091;-92.509;1227;2021-02-12 15:47:56:895
9.71328;0.57461;-0.4525;9.77887;0.60159;-0.42695;-0.06256;-0.00277;-0.02533;1.52228;0.11973;0.03971;-31.44;-14.4;13.2;135.977;-3.517;-92.5;1276;2021-02-12 15:47:56:944
9.73004;0.53391;-0.42377;9.78566;0.50032;-0.40128;-0.06256;-0.00277;-0.02533;1.52228;0.11973;0.03971;-31.44;-14.4;13.2;135.977;-3.517;-92.5;1327;2021-02-12 15:47:56:995
9.73004;0.53391;-0.42377;9.78566;0.50032;-0.40128;-0.02298;0.06171;-0.02768;1.52228;0.11973;0.03971;-30.84;-11.46;15.84;122.491;-2.924;-92.348;1376;2021-02-12 15:47:57:044
9.80186;0.5363;-0.39265;9.79062;0.43254;-0.35633;-0.02298;0.06171;-0.02768;1.59863;0.13378;0.00672;-30.84;-11.46;15.84;122.491;-2.924;-92.348;1427;2021-02-12 15:47:57:095
9.80186;0.5363;-0.39265;9.79062;0.43254;-0.35633;0.03368;0.09606;-0.04095;1.59863;0.13378;0.00672;-30.84;-11.46;15.84;122.491;-2.924;-92.348;1477;2021-02-12 15:47:57:145
9.79468;0.50996;-0.3711;9.79251;0.42595;-0.30945;0.03368;0.09606;-0.04095;1.67866;0.12767;-0.0672;-31.26;-7.44;17.7;108.367;-2.528;-92.084;1528;2021-02-12 15:47:57:196
9.79468;0.50996;-0.3711;9.79251;0.42595;-0.30945;0.03851;0.04145;-0.05569;1.67866;0.12767;-0.0672;-31.26;-7.44;17.7;108.367;-2.528;-92.084;1577;2021-02-12 15:47:57:245
9.81144;0.4956;-0.34955;9.79114;0.4754;-0.27919;0.03851;0.04145;-0.05569;1.7483;0.09835;-0.14905;-30.6;-3.0;19.26;94.635;-2.779;-91.633;1626;2021-02-12 15:47:57:294
9.84735;0.45969;-0.34955;9.79114;0.4754;-0.27919;0.09257;-0.05617;-0.06958;1.7483;0.09835;-0.14905;-30.6;-3.0;19.26;94.635;-2.779;-91.633;1677;2021-02-12 15:47:57:345
9.84735;0.45969;-0.34955;9.78556;0.57274;-0.29173;0.09257;-0.05617;-0.06958;1.7483;0.09835;-0.14905;-30.72;0.9;20.04;81.52;-3.348;-91.708;1729;2021-02-12 15:47:57:397
9.85453;0.42138;-0.34477;9.78556;0.57274;-0.29173;0.05587;-0.1853;0.00295;1.80266;0.0507;-0.20464;-30.72;0.9;20.04;81.52;-3.348;-91.708;1777;2021-02-12 15:47:57:445
9.85453;0.42138;-0.34477;9.78018;0.62559;-0.35648;0.05587;-0.1853;0.00295;1.80266;0.0507;-0.20464;-30.72;0.9;20.04;81.52;-3.348;-91.708;1827;2021-02-12 15:47:57:495
9.80186;0.40701;-0.36152;9.78018;0.62559;-0.35648;0.04477;-0.22559;0.0424;1.83748;0.00183;-0.22235;-31.26;5.4;20.82;70.543;-3.658;-92.087;1877;2021-02-12 15:47:57:545
9.80186;0.40701;-0.36152;9.77828;0.61562;-0.42034;0.04477;-0.22559;0.0424;1.83748;0.00183;-0.22235;-31.26;5.4;20.82;70.543;-3.658;-92.087;1926;2021-02-12 15:47:57:594
9.7875;0.40462;-0.37589;9.77828;0.61562;-0.42034;-0.00288;-0.20453;0.07298;1.84176;6.1E-4;-0.20708;-31.08;10.02;20.52;58.627;-3.599;-92.461;1977;2021-02-12 15:47:57:645
9.7875;0.40462;-0.37589;9.77853;0.58126;-0.46132;-0.00288;-0.20453;0.07298;1.84176;6.1E-4;-0.20708;-31.08;10.02;20.52;58.627;-3.599;-92.461;2027;2021-02-12 15:47:57:695
9.73482;0.35674;-0.44053;9.77853;0.58126;-0.46132;-0.05127;-0.18724;0.04273;1.84176;6.1E-4;-0.20708;-31.08;10.02;20.52;58.627;-3.599;-92.461;2077;2021-02-12 15:47:57:745
9.73482;0.35674;-0.44053;9.77905;0.54787;-0.49029;-0.05127;-0.18724;0.04273;1.81305;0.03299;-0.18143;-32.1;14.28;18.66;47.654;-3.398;-92.701;2127;2021-02-12 15:47:57:795
9.73482;0.35674;-0.44053;9.77905;0.54787;-0.49029;-0.06591;-0.17305;0.04002;1.81305;0.03299;-0.18143;-32.1;14.28;18.66;47.654;-3.398;-92.701;2177;2021-02-12 15:47:57:845
9.70849;0.3711;-0.46926;9.77935;0.5313;-0.50248;-0.06591;-0.17305;0.04002;1.74891;0.09346;-0.16799;-33.24;17.88;17.28;37.657;-3.106;-92.941;2228;2021-02-12 15:47:57:896
9.73961;0.35913;-0.4956;9.78032;0.52624;-0.48872;-0.06424;-0.16438;0.01582;1.74891;0.09346;-0.16799;-33.24;17.88;17.28;37.657;-3.106;-92.941;2279;2021-02-12 15:47:57:947
9.73961;0.35913;-0.4956;9.78032;0.52624;-0.48872;-0.06424;-0.16438;0.01582;1.74891;0.09346;-0.16799;-33.54;20.16;13.32;27.343;-3.076;-92.861;2327;2021-02-12 15:47:57:995
9.77792;0.39265;-0.53151;9.78022;0.56658;-0.44361;-0.02619;-0.19415;-0.05226;1.66033;0.16738;-0.17959;-33.54;20.16;13.32;27.343;-3.076;-92.861;2376;2021-02-12 15:47:58:044
9.77792;0.39265;-0.53151;9.78022;0.56658;-0.44361;-0.02619;-0.19415;-0.05226;1.66033;0.16738;-0.17959;-33.54;20.16;13.32;27.343;-3.076;-92.861;2427;2021-02-12 15:47:58:095
9.77553;0.39025;-0.59137;9.77968;0.60564;-0.40181;-0.01389;-0.22549;-0.17397;1.56076;0.20831;-0.20464;-34.44;22.5;7.92;14.5;-3.312;-92.597;2477;2021-02-12 15:47:58:145
9.77553;0.39025;-0.59137;9.77968;0.60564;-0.40181;-0.01389;-0.22549;-0.17397;1.56076;0.20831;-0.20464;-34.44;22.5;7.92;14.5;-3.312;-92.597;2528;2021-02-12 15:47:58:196
9.7851;0.41899;-0.62249;9.77854;0.62443;-0.40088;0.02524;-0.22558;-0.24631;1.44653;0.21747;-0.22113;-36.3;22.74;4.2;5.711;-3.541;-92.353;2577;2021-02-12 15:47:58:245
9.7851;0.41899;-0.62249;9.77854;0.62443;-0.40088;0.02524;-0.22558;-0.24631;1.44653;0.21747;-0.22113;-36.3;22.74;4.2;5.711;-3.541;-92.353;2627;2021-02-12 15:47:58:295
9.78031;0.43335;-0.68714;9.77554;0.66201;-0.41351;0.01853;-0.22007;-0.26632;1.44653;0.21747;-0.22113;-36.3;22.74;4.2;5.711;-3.541;-92.353;2677;2021-02-12 15:47:58:345
9.78031;0.43335;-0.68714;9.77554;0.66201;-0.41351;0.01853;-0.22007;-0.26632;1.33046;0.18815;-0.20647;-37.26;22.26;-0.72;354.014;-3.871;-92.422;2727;2021-02-12 15:47:58:395
9.7444;0.47405;-0.71347;9.77252;0.67864;-0.45567;-0.01426;-0.21571;-0.25552;1.33046;0.18815;-0.20647;-37.26;22.26;-0.72;354.014;-3.871;-92.422;2777;2021-02-12 15:47:58:445
9.7444;0.47405;-0.71347;9.77252;0.67864;-0.45567;-0.01426;-0.21571;-0.25552;1.22601;0.15088;-0.1576;-37.98;21.24;-3.42;348.566;-3.968;-92.67;2829;2021-02-12 15:47:58:497
9.73243;0.48123;-0.75178;9.77063;0.663;-0.51531;-0.05279;-0.19415;-0.2355;1.22601;0.15088;-0.1576;-37.98;21.24;-3.42;348.566;-3.968;-92.67;2877;2021-02-12 15:47:58:545
9.73243;0.48123;-0.75178;9.77063;0.663;-0.51531;-0.05279;-0.19415;-0.2355;1.22601;0.15088;-0.1576;-37.68;19.5;-6.96;348.566;-3.968;-92.67;2926;2021-02-12 15:47:58:594
9.69891;0.50039;-0.7829;9.77051;0.62044;-0.56802;-0.06906;-0.13494;-0.22364;1.10872;0.12034;-0.07575;-37.68;19.5;-6.96;348.566;-3.968;-92.67;2977;2021-02-12 15:47:58:645
9.69891;0.50039;-0.7829;9.77051;0.62044;-0.56802;-0.06906;-0.13494;-0.22364;1.10872;0.12034;-0.07575;-37.68;19.5;-6.96;348.566;-3.968;-92.67;3027;2021-02-12 15:47:58:695
9.70849;0.50996;-0.83079;9.77129;0.58394;-0.59265;-0.06281;-0.07398;-0.23813;1.01465;0.09896;-0.011;-37.8;17.82;-9.24;330.805;-3.414;-93.471;3076;2021-02-12 15:47:58:744
9.70849;0.50996;-0.83079;9.77129;0.58394;-0.59265;-0.06281;-0.07398;-0.23813;1.01465;0.09896;-0.011;-37.8;17.82;-9.24;330.805;-3.414;-93.471;3127;2021-02-12 15:47:58:795
9.67976;0.52912;-0.84515;9.77463;0.46394;-0.64176;-0.06614;0.06039;-0.21058;1.01465;0.09896;-0.011;-37.8;17.82;-9.24;330.805;-3.414;-93.471;3177;2021-02-12 15:47:58:845
9.67976;0.52912;-0.84515;9.77463;0.46394;-0.64176;-0.06614;0.06039;-0.21058;0.8436;0.07819;0.07086;-38.04;15.18;-10.5;323.331;-2.712;-93.756;3226;2021-02-12 15:47:58:894
9.69412;0.55306;-0.87867;9.7758;0.38657;-0.67427;-0.03858;0.1641;-0.19722;0.8436;0.07819;0.07086;-38.04;15.18;-10.5;323.331;-2.712;-93.756;3277;2021-02-12 15:47:58:945
9.69412;0.55306;-0.87867;9.7758;0.38657;-0.67427;-0.03858;0.1641;-0.19722;0.70127;0.07208;0.08491;-38.16;14.04;-12.84;314.749;-2.259;-93.946;3327;2021-02-12 15:47:58:995
9.72525;0.56024;-0.91219;9.77305;0.36768;-0.723;0.01924;0.20454;-0.19158;0.70127;0.07208;0.08491;-38.16;14.04;-12.84;314.749;-2.259;-93.946;3377;2021-02-12 15:47:59:045
9.72525;0.56024;-0.91219;9.77305;0.36768;-0.723;0.01924;0.20454;-0.19158;0.70127;0.07208;0.08491;-38.16;14.04;-12.84;314.749;-2.259;-93.946;3427;2021-02-12 15:47:59:095
9.74201;0.56503;-0.90261;9.77094;0.35839;-0.7555;0.0022;0.23298;-0.17345;0.55283;0.06842;0.05864;-36.96;13.14;-13.44;312.415;-2.149;-94.231;3477;2021-02-12 15:47:59:145
9.74201;0.56503;-0.90261;9.77094;0.35839;-0.7555;0.0022;0.23298;-0.17345;0.55283;0.06842;0.05864;-36.96;13.14;-13.44;312.415;-2.149;-94.231;3527;2021-02-12 15:47:59:195
9.74201;0.58419;-0.91937;9.77094;0.35839;-0.7555;0.0022;0.23298;-0.17345;0.40867;0.03787;0.00733;-37.08;12.0;-14.58;306.75;-2.094;-94.421;3576;2021-02-12 15:47:59:244
9.74201;0.58419;-0.91937;9.76738;0.3875;-0.78647;0.0249;0.21344;-0.16642;0.40867;0.03787;0.00733;-37.08;12.0;-14.58;306.75;-2.094;-94.421;3627;2021-02-12 15:47:59:295
9.76355;0.59616;-0.93853;9.76236;0.44408;-0.8183;0.01078;0.15926;-0.12023;0.25229;0.01344;-0.05376;-37.08;12.0;-14.58;306.75;-2.094;-94.421;3677;2021-02-12 15:47:59:345
9.75637;0.59376;-0.95768;9.76236;0.44408;-0.8183;0.01078;0.15926;-0.12023;0.25229;0.01344;-0.05376;-37.62;11.04;-15.72;303.477;-2.595;-94.791;3727;2021-02-12 15:47:59:395
9.75637;0.59376;-0.95768;9.75597;0.52016;-0.84906;0.00998;0.076;-0.09665;0.25229;0.01344;-0.05376;-37.62;11.04;-15.72;303.477;-2.595;-94.791;3776;2021-02-12 15:47:59:444
9.74201;0.59616;-0.95289;9.75597;0.52016;-0.84906;0.00998;0.076;-0.09665;0.09896;-0.00977;-0.09652;-37.32;9.42;-15.66;299.581;-3.04;-94.974;3827;2021-02-12 15:47:59:495
9.74201;0.59616;-0.95289;9.74807;0.61361;-0.8769;-0.03001;-0.00548;-0.09994;0.09896;-0.00977;-0.09652;-37.32;9.42;-15.66;299.581;-3.04;-94.974;3877;2021-02-12 15:47:59:545
9.73482;0.60813;-0.97205;9.74807;0.61361;-0.8769;-0.03001;-0.00548;-0.09994;-0.03971;-0.01772;-0.10385;-37.62;8.4;-15.42;299.238;-3.587;-95.14;3927;2021-02-12 15:47:59:595
9.73482;0.60813;-0.97205;9.73947;0.70621;-0.90241;-0.0669;-0.10766;-0.05527;-0.03971;-0.01772;-0.10385;-37.62;8.4;-15.42;299.238;-3.587;-95.14;3977;2021-02-12 15:47:59:645
9.71806;0.60573;-0.96726;9.73947;0.70621;-0.90241;-0.0669;-0.10766;-0.05527;-0.03971;-0.01772;-0.10385;-37.62;8.4;-15.42;299.238;-3.587;-95.14;4027;2021-02-12 15:47:59:695
9.71806;0.60573;-0.96726;9.73377;0.7635;-0.91718;-0.09471;-0.16735;-0.04768;-0.18204;-0.01405;-0.07147;-37.98;7.92;-14.52;299.9;-4.13;-95.294;4077;2021-02-12 15:47:59:745
9.663;0.61292;-0.96726;9.73377;0.7635;-0.91718;-0.09471;-0.16735;-0.04768;-0.18204;-0.01405;-0.07147;-37.98;7.92;-14.52;299.9;-4.13;-95.294;4127;2021-02-12 15:47:59:795
9.663;0.61292;-0.96726;9.73338;0.77356;-0.91282;-0.09433;-0.18219;-0.05444;-0.31643;0.00794;-0.00122;-37.74;7.08;-14.34;299.299;-4.465;-95.383;4176;2021-02-12 15:47:59:844
9.64145;0.60573;-0.96486;9.73338;0.77356;-0.91282;-0.09433;-0.18219;-0.05444;-0.31643;0.00794;-0.00122;-37.74;7.08;-14.34;299.299;-4.465;-95.383;4227;2021-02-12 15:47:59:895
9.64145;0.60573;-0.96486;9.73865;0.73604;-0.88736;-0.08523;-0.13509;-0.06553;-0.43249;0.01649;0.08125;-37.74;7.68;-14.58;300.234;-4.304;-95.206;4276;2021-02-12 15:47:59:944
9.65582;0.60094;-0.95529;9.73865;0.73604;-0.88736;-0.08523;-0.13509;-0.06553;-0.43249;0.01649;0.08125;-37.74;7.68;-14.58;300.234;-4.304;-95.206;4326;2021-02-12 15:47:59:994
9.65582;0.60094;-0.95529;9.74574;0.67439;-0.85795;-0.06599;-0.07106;-0.06621;-0.43249;0.01649;0.08125;-37.74;7.68;-14.58;300.234;-4.304;-95.206;4377;2021-02-12 15:48:00:045
9.68215;0.60573;-0.9505;9.74574;0.67439;-0.85795;-0.06599;-0.07106;-0.06621;-0.54917;0.02138;0.16799;-38.1;8.58;-14.88;302.162;-3.943;-95.031;4426;2021-02-12 15:48:00:094
9.68215;0.60573;-0.9505;9.75588;0.56063;-0.82399;-0.03781;0.05708;-0.07863;-0.54917;0.02138;0.16799;-38.1;8.58;-14.88;302.162;-3.943;-95.031;4477;2021-02-12 15:48:00:145
9.73482;0.61531;-0.89304;9.75588;0.56063;-0.82399;-0.03781;0.05708;-0.07863;-0.59804;6.1E-4;0.23274;-38.1;9.66;-13.32;306.806;-3.277;-94.828;4527;2021-02-12 15:48:00:195
9.73482;0.61531;-0.89304;9.76158;0.45648;-0.82073;-0.01239;0.15643;-0.04836;-0.59804;6.1E-4;0.23274;-38.1;9.66;-13.32;306.806;-3.277;-94.828;4577;2021-02-12 15:48:00:245
9.77792;0.60573;-0.87867;9.76158;0.45648;-0.82073;-0.01239;0.15643;-0.04836;-0.59804;6.1E-4;0.23274;-38.1;9.66;-13.32;306.806;-3.277;-94.828;4626;2021-02-12 15:48:00:294
9.77792;0.60573;-0.87867;9.76423;0.37713;-0.82949;0.00651;0.23339;-0.03003;-0.69516;-0.0226;0.24557;-37.86;10.92;-14.22;306.537;-2.668;-94.806;4677;2021-02-12 15:48:00:345
9.76834;0.60813;-0.85712;9.76423;0.37713;-0.82949;0.00651;0.23339;-0.03003;-0.69516;-0.0226;0.24557;-37.86;10.92;-14.22;306.537;-2.668;-94.806;4727;2021-02-12 15:48:00:395
9.76834;0.60813;-0.85712;9.76364;0.35234;-0.84713;0.01907;0.24381;0.00676;-0.79596;-0.04765;0.21625;-37.44;13.26;-14.22;310.058;-2.204;-94.856;4776;2021-02-12 15:48:00:444
9.77074;0.61052;-0.85473;9.76364;0.35234;-0.84713;0.01907;0.24381;0.00676;-0.79596;-0.04765;0.21625;-37.44;13.26;-14.22;310.058;-2.204;-94.856;4826;2021-02-12 15:48:00:494
9.77074;0.61052;-0.85473;9.76186;0.34868;-0.86885;-0.01267;0.25945;0.01891;-0.89247;-0.06048;0.15638;-37.44;13.26;-14.22;310.058;-2.204;-94.856;4876;2021-02-12 15:48:00:544
9.78031;0.60094;-0.85234;9.76186;0.34868;-0.86885;-0.01267;0.25945;0.01891;-0.89247;-0.06048;0.15638;-37.38;14.94;-12.24;316.873;-2.038;-95.086;4927;2021-02-12 15:48:00:595
9.78031;0.60094;-0.85234;9.75909;0.38749;-0.88341;-0.00272;0.22064;0.03347;-0.89247;-0.06048;0.15638;-37.38;14.94;-12.24;316.873;-2.038;-95.086;4976;2021-02-12 15:48:00:644
9.73482;0.58658;-0.83318;9.75909;0.38749;-0.88341;-0.00272;0.22064;0.03347;-0.97738;-0.05742;0.09529;-37.38;16.56;-11.64;320.28;-2.264;-95.172;5026;2021-02-12 15:48:00:694
9.73482;0.58658;-0.83318;9.75702;0.44194;-0.88068;-0.03417;0.13267;0.0475;-0.97738;-0.05742;0.09529;-37.38;16.56;-11.64;320.28;-2.264;-95.172;5077;2021-02-12 15:48:00:745
9.69652;0.59137;-0.83558;9.75702;0.44194;-0.88068;-0.03417;0.13267;0.0475;-1.05741;-0.03543;0.04948;-38.28;17.7;-10.68;323.809;-2.583;-95.158;5128;2021-02-12 15:48:00:796
9.69652;0.59137;-0.83558;9.75609;0.49869;-0.86053;-0.0476;0.0831;0.03931;-1.05741;-0.03543;0.04948;-38.28;17.7;-10.68;323.809;-2.583;-95.158;5176;2021-02-12 15:48:00:844
9.67976;0.56743;-0.83318;9.75609;0.49869;-0.86053;-0.0476;0.0831;0.03931;-1.05741;-0.03543;0.04948;-38.28;17.7;-10.68;323.809;-2.583;-95.158;5227;2021-02-12 15:48:00:895
9.68215;0.59376;-0.79966;9.75685;0.55743;-0.81463;-0.0747;0.03633;0.01497;-1.12155;-0.01161;0.04276;-37.92;18.9;-8.58;329.467;-2.915;-95.041;5277;2021-02-12 15:48:00:945
9.68215;0.59376;-0.79966;9.75685;0.55743;-0.81463;-0.0747;0.03633;0.01497;-1.12155;-0.01161;0.04276;-37.92;18.9;-8.58;329.467;-2.915;-95.041;5327;2021-02-12 15:48:00:995
9.68455;0.56024;-0.77572;9.76006;0.58896;-0.75145;-0.07552;-0.02872;-0.02427;-1.16553;-6.1E-4;0.0733;-37.62;20.1;-6.36;337.522;-3.259;-94.773;5377;2021-02-12 15:48:01:045
9.68455;0.56024;-0.77572;9.76006;0.58896;-0.75145;-0.07552;-0.02872;-0.02427;-1.16553;-6.1E-4;0.0733;-37.62;20.1;-6.36;337.522;-3.259;-94.773;5426;2021-02-12 15:48:01:094
9.71328;0.58897;-0.76854;9.76472;0.57469;-0.70021;-0.05145;0.01428;-0.06833;-1.19791;-0.01038;0.13317;-37.5;20.52;-4.62;341.718;-3.36;-94.102;5477;2021-02-12 15:48:01:145
9.71328;0.58897;-0.76854;9.76472;0.57469;-0.70021;-0.05145;0.01428;-0.06833;-1.19791;-0.01038;0.13317;-37.5;20.52;-4.62;341.718;-3.36;-94.102;5526;2021-02-12 15:48:01:194
9.73243;0.58897;-0.75417;9.76881;0.52187;-0.68445;-0.03638;0.0671;-0.06972;-1.19791;-0.01038;0.13317;-37.5;20.52;-4.62;341.718;-3.36;-94.102;5577;2021-02-12 15:48:01:245
9.73243;0.58897;-0.75417;9.76881;0.52187;-0.68445;-0.03638;0.0671;-0.06972;-1.21684;-0.05315;0.19426;-37.2;21.42;-3.06;346.322;-3.05;-94.008;5627;2021-02-12 15:48:01:295
9.78271;0.58419;-0.74939;9.77039;0.45362;-0.71005;0.01232;0.13056;-0.03934;-1.21684;-0.05315;0.19426;-37.2;21.42;-3.06;346.322;-3.05;-94.008;5676;2021-02-12 15:48:01:344
9.78271;0.58419;-0.74939;9.77039;0.45362;-0.71005;0.01232;0.13056;-0.03934;-1.22478;-0.10568;0.22969;-37.26;22.5;-0.18;346.322;-3.05;-94.008;5727;2021-02-12 15:48:01:395
9.82102;0.60094;-0.73023;9.76854;0.42061;-0.75448;0.02135;0.18512;0.03382;-1.22478;-0.10568;0.22969;-37.26;22.5;-0.18;346.322;-3.05;-94.008;5777;2021-02-12 15:48:01:445
9.82102;0.60094;-0.73023;9.76854;0.42061;-0.75448;0.02135;0.18512;0.03382;-1.22478;-0.10568;0.22969;-37.26;22.5;-0.18;346.322;-3.05;-94.008;5827;2021-02-12 15:48:01:495
9.7851;0.60573;-0.7039;9.76482;0.41541;-0.80384;0.01071;0.19511;0.09755;-1.22417;-0.15394;0.23335;-36.78;22.68;3.0;0.331;-2.458;-94.416;5877;2021-02-12 15:48:01:545
9.7851;0.60573;-0.7039;9.76482;0.41541;-0.80384;0.01071;0.19511;0.09755;-1.22417;-0.15394;0.23335;-36.78;22.68;3.0;0.331;-2.458;-94.416;5926;2021-02-12 15:48:01:594
9.77074;0.6201;-0.70629;9.76159;0.44258;-0.82814;0.01154;0.17033;0.12186;-1.21318;-0.16677;0.20586;-36.06;22.5;5.28;4.732;-2.428;-94.706;5977;2021-02-12 15:48:01:645
9.77074;0.6201;-0.70629;9.76159;0.44258;-0.82814;0.01154;0.17033;0.12186;-1.21318;-0.16677;0.20586;-36.06;22.5;5.28;4.732;-2.428;-94.706;6027;2021-02-12 15:48:01:695
9.75398;0.61292;-0.69911;9.76087;0.48871;-0.81058;-0.02844;0.14815;0.11866;-1.18874;-0.14172;0.16982;-35.22;21.84;8.34;12.067;-2.856;-94.747;6076;2021-02-12 15:48:01:744
9.75398;0.61292;-0.69911;9.76087;0.48871;-0.81058;-0.02844;0.14815;0.11866;-1.18874;-0.14172;0.16982;-35.22;21.84;8.34;12.067;-2.856;-94.747;6127;2021-02-12 15:48:01:795
9.73004;0.63925;-0.69192;9.76044;0.51288;-0.80068;-0.06872;0.12637;0.12312;-1.18874;-0.14172;0.16982;-35.22;21.84;8.34;12.067;-2.856;-94.747;6176;2021-02-12 15:48:01:844
9.65582;0.65841;-0.69192;9.76044;0.51288;-0.80068;-0.06872;0.12637;0.12312;-1.14782;-0.08308;0.1405;-34.92;21.3;10.92;19.528;-2.998;-94.69;6227;2021-02-12 15:48:01:895
9.65582;0.65841;-0.69192;9.76226;0.53365;-0.76417;-0.08489;0.12475;0.07943;-1.14782;-0.08308;0.1405;-34.92;21.3;10.92;19.528;-2.998;-94.69;6276;2021-02-12 15:48:01:944
9.65582;0.65841;-0.69192;9.76226;0.53365;-0.76417;-0.08489;0.12475;0.07943;-1.0849;-0.00916;0.13317;-34.5;20.22;13.62;27.328;-3.119;-94.476;6327;2021-02-12 15:48:01:995
9.67497;0.6608;-0.67995;9.76743;0.52043;-0.70489;-0.09246;0.15473;0.02255;-1.0849;-0.00916;0.13317;-34.5;20.22;13.62;27.328;-3.119;-94.476;6377;2021-02-12 15:48:02:045
9.70131;0.68953;-0.68474;9.76743;0.52043;-0.70489;-0.09246;0.15473;0.02255;-1.01159;0.05192;0.14416;-34.5;20.22;13.62;27.328;-3.119;-94.476;6427;2021-02-12 15:48:02:095
9.70131;0.68953;-0.68474;9.77299;0.50759;-0.63367;-0.10999;0.18434;-0.05586;-1.01159;0.05192;0.14416;-33.42;17.34;16.32;35.872;-3.042;-94.128;6478;2021-02-12 15:48:02:146
9.71088;0.71587;-0.68714;9.77299;0.50759;-0.63367;-0.10999;0.18434;-0.05586;-1.01159;0.05192;0.14416;-33.42;17.34;16.32;35.872;-3.042;-94.128;6527;2021-02-12 15:48:02:195
9.71088;0.71587;-0.68714;9.77857;0.4908;-0.55599;-0.06529;0.23943;-0.14551;-0.91691;0.08369;0.1631;-34.38;16.5;16.5;38.159;-2.967;-93.71;6579;2021-02-12 15:48:02:247
9.73482;0.72305;-0.68235;9.77857;0.4908;-0.55599;-0.06529;0.23943;-0.14551;-0.91691;0.08369;0.1631;-34.38;16.5;16.5;38.159;-2.967;-93.71;6627;2021-02-12 15:48:02:295
9.73482;0.72305;-0.68235;9.7808;0.48869;-0.51714;-0.02204;0.23915;-0.17957;-0.81062;0.07208;0.17165;-33.06;15.6;17.76;42.573;-2.856;-93.027;6676;2021-02-12 15:48:02:344
9.76595;0.73023;-0.70629;9.7808;0.48869;-0.51714;-0.02204;0.23915;-0.17957;-0.81062;0.07208;0.17165;-33.06;15.6;17.76;42.573;-2.856;-93.027;6727;2021-02-12 15:48:02:395
9.76595;0.73023;-0.70629;9.78077;0.49054;-0.51597;0.00194;0.25645;-0.17356;-0.81062;0.07208;0.17165;-33.06;15.6;17.76;42.573;-2.856;-93.027;6777;2021-02-12 15:48:02:445
9.78989;0.7422;-0.66559;9.78077;0.49054;-0.51597;0.00194;0.25645;-0.17356;-0.70433;0.0336;0.15882;-33.18;13.98;20.46;49.3;-2.867;-93.02;6827;2021-02-12 15:48:02:495
9.78989;0.7422;-0.66559;9.77916;0.4993;-0.53779;0.03228;0.25488;-0.13738;-0.70433;0.0336;0.15882;-33.18;13.98;20.46;49.3;-2.867;-93.02;6876;2021-02-12 15:48:02:544
9.79229;0.76136;-0.66319;9.77916;0.4993;-0.53779;0.03228;0.25488;-0.13738;-0.5846;-0.02627;0.12095;-33.12;12.84;19.2;49.387;-2.918;-93.148;6927;2021-02-12 15:48:02:595
9.79229;0.76136;-0.66319;9.77554;0.51937;-0.58267;0.03351;0.24678;-0.10686;-0.5846;-0.02627;0.12095;-33.12;12.84;19.2;49.387;-2.918;-93.148;6976;2021-02-12 15:48:02:644
9.79947;0.76614;-0.68953;9.77554;0.51937;-0.58267;0.03351;0.24678;-0.10686;-0.5846;-0.02627;0.12095;-33.12;12.84;19.2;49.387;-2.918;-93.148;7027;2021-02-12 15:48:02:695
9.79947;0.76614;-0.68953;9.76965;0.55342;-0.64654;0.01066;0.21512;-0.04299;-0.45937;-0.07391;0.06781;-32.52;12.3;19.92;52.544;-3.036;-93.411;7077;2021-02-12 15:48:02:745
9.77313;0.78051;-0.69671;9.76965;0.55342;-0.64654;0.01066;0.21512;-0.04299;-0.45937;-0.07391;0.06781;-32.52;12.3;19.92;52.544;-3.036;-93.411;7127;2021-02-12 15:48:02:795
9.77313;0.78051;-0.69671;9.76262;0.60022;-0.70806;-0.02062;0.16832;0.00896;-0.34453;-0.10385;0.01955;-32.1;10.8;19.98;54.221;-3.235;-93.786;7177;2021-02-12 15:48:02:845
9.75877;0.76614;-0.68474;9.76262;0.60022;-0.70806;-0.02062;0.16832;0.00896;-0.34453;-0.10385;0.01955;-32.1;10.8;19.98;54.221;-3.235;-93.786;7226;2021-02-12 15:48:02:894
9.75877;0.76614;-0.68474;9.75371;0.65289;-0.78056;-0.03564;0.13001;0.06709;-0.2138;-0.09896;-0.01405;-31.26;9.3;20.28;57.458;-3.817;-94.575;7276;2021-02-12 15:48:02:944
9.73004;0.7829;-0.7015;9.75371;0.65289;-0.78056;-0.03564;0.13001;0.06709;-0.2138;-0.09896;-0.01405;-31.26;9.3;20.28;57.458;-3.817;-94.575;7332;2021-02-12 15:48:03:000
9.73004;0.7829;-0.7015;9.74695;0.69915;-0.82373;-0.04564;0.06939;0.11026;-0.2138;-0.09896;-0.01405;-31.26;9.3;20.28;57.458;-3.817;-94.575;7377;2021-02-12 15:48:03:045
9.67976;0.7829;-0.71826;9.74695;0.69915;-0.82373;-0.04564;0.06939;0.11026;-0.09713;-0.07269;-0.02199;-31.02;9.0;20.4;56.878;-4.088;-94.831;7427;2021-02-12 15:48:03:095
9.67976;0.7829;-0.71826;9.74184;0.73501;-0.85249;-0.10039;0.02395;0.11986;-0.09713;-0.07269;-0.02199;-31.02;9.0;20.4;56.878;-4.088;-94.831;7477;2021-02-12 15:48:03:145
9.64145;0.77812;-0.73741;9.74184;0.73501;-0.85249;-0.10039;0.02395;0.11986;0.03115;-0.00672;-0.00672;-30.9;8.52;21.06;57.903;-4.298;-95.001;7526;2021-02-12 15:48:03:194
9.64145;0.77812;-0.73741;9.74144;0.74407;-0.84917;-0.07126;0.01968;0.12373;0.03115;-0.00672;-0.00672;-30.9;8.52;21.06;57.903;-4.298;-95.001;7576;2021-02-12 15:48:03:244
9.64384;0.77572;-0.75417;9.74144;0.74407;-0.84917;-0.07126;0.01968;0.12373;0.15394;0.05315;0.02199;-30.9;8.52;21.06;57.903;-4.298;-95.001;7626;2021-02-12 15:48:03:294
9.64384;0.77572;-0.75417;9.74654;0.72205;-0.80873;-0.07636;0.02494;0.0809;0.15394;0.05315;0.02199;-31.02;8.58;21.12;57.853;-4.351;-94.982;7677;2021-02-12 15:48:03:345
9.663;0.75657;-0.74939;9.74654;0.72205;-0.80873;-0.07636;0.02494;0.0809;0.15394;0.05315;0.02199;-31.02;8.58;21.12;57.853;-4.351;-94.982;7726;2021-02-12 15:48:03:394
9.67736;0.76136;-0.73502;9.75374;0.69157;-0.7461;-0.07638;0.06978;0.01108;0.54489;0.13378;-0.00122;-30.54;9.36;21.12;58.219;-4.222;-94.743;7777;2021-02-12 15:48:03:445
9.67736;0.76136;-0.73502;9.75374;0.69157;-0.7461;-0.07638;0.06978;0.01108;0.54489;0.13378;-0.00122;-30.54;9.36;21.12;58.219;-4.222;-94.743;7827;2021-02-12 15:48:03:495
9.71088;0.76375;-0.75896;9.75546;0.70733;-0.70787;-0.04458;0.05642;-0.0511;0.64385;0.1741;0.01161;-31.32;10.92;19.8;53.073;-4.136;-94.15;7876;2021-02-12 15:48:03:544
9.71088;0.76375;-0.75896;9.75546;0.70733;-0.70787;-0.04458;0.05642;-0.0511;0.64385;0.1741;0.01161;-31.32;10.92;19.8;53.073;-4.136;-94.15;7928;2021-02-12 15:48:03:596
9.73722;0.72544;-0.7446;9.75727;0.70412;-0.6858;-0.02005;0.02132;-0.0588;0.64385;0.1741;0.01161;-31.32;10.92;19.8;53.073;-4.136;-94.15;7977;2021-02-12 15:48:03:645
9.73722;0.72544;-0.7446;9.75727;0.70412;-0.6858;-0.02005;0.02132;-0.0588;0.72815;0.17104;0.00611;-31.8;10.98;19.86;52.957;-4.117;-94.02;8027;2021-02-12 15:48:03:695
9.77313;0.72784;-0.74699;9.76458;0.66945;-0.61262;0.00855;0.05839;-0.13437;0.72815;0.17104;0.00611;-31.8;10.98;19.86;52.957;-4.117;-94.02;8077;2021-02-12 15:48:03:745
9.77313;0.72784;-0.74699;9.76458;0.66945;-0.61262;0.00855;0.05839;-0.13437;0.79168;0.14294;-0.01466;-31.68;12.48;19.56;51.59;-3.914;-93.59;8126;2021-02-12 15:48:03:794
9.78271;0.70629;-0.77093;9.76503;0.66344;-0.61196;0.01768;0.04285;-0.15897;0.79168;0.14294;-0.01466;-31.68;12.48;19.56;51.59;-3.914;-93.59;8176;2021-02-12 15:48:03:844
9.78271;0.70629;-0.77093;9.76503;0.66344;-0.61196;0.01768;0.04285;-0.15897;0.84483;0.08919;-0.04276;-31.68;12.48;19.56;51.59;-3.914;-93.59;8227;2021-02-12 15:48:03:895
9.76116;0.67995;-0.77093;9.76245;0.6677;-0.64747;-0.00129;0.01226;-0.12346;0.84483;0.08919;-0.04276;-32.04;13.62;18.6;46.299;-3.879;-93.586;8277;2021-02-12 15:48:03:945
9.76116;0.67995;-0.77093;9.76245;0.6677;-0.64747;-0.00129;0.01226;-0.12346;0.84483;0.08919;-0.04276;-32.04;13.62;18.6;46.299;-3.879;-93.586;8327;2021-02-12 15:48:03:995
9.78031;0.69192;-0.79248;9.75911;0.67262;-0.69117;0.0212;0.0193;-0.10131;0.8827;0.03299;-0.06842;-33.3;15.0;17.34;40.533;-3.904;-93.794;8376;2021-02-12 15:48:04:044
9.78031;0.69192;-0.79248;9.75911;0.67262;-0.69117;0.0212;0.0193;-0.10131;0.8827;0.03299;-0.06842;-33.3;15.0;17.34;40.533;-3.904;-93.794;8427;2021-02-12 15:48:04:095
9.75158;0.65362;-0.80206;9.75354;0.68235;-0.75719;-0.00195;-0.02873;-0.04487;0.90164;-0.01772;-0.08247;-33.66;16.2;16.74;37.87;-3.99;-94.439;8477;2021-02-12 15:48:04:145
9.75158;0.65362;-0.80206;9.75354;0.68235;-0.75719;-0.00195;-0.02873;-0.04487;0.90164;-0.01772;-0.08247;-33.66;16.2;16.74;37.87;-3.99;-94.439;8527;2021-02-12 15:48:04:195
9.7444;0.66798;-0.79487;9.74743;0.68919;-0.82649;-0.00303;-0.02121;0.03162;0.90164;-0.01772;-0.08247;-33.66;16.2;16.74;37.87;-3.99;-94.439;8577;2021-02-12 15:48:04:245
9.7444;0.66798;-0.79487;9.74743;0.68919;-0.82649;-0.00303;-0.02121;0.03162;0.90713;-0.03848;-0.08613;-33.48;16.92;16.92;36.151;-4.03;-94.847;8627;2021-02-12 15:48:04:295
9.7037;0.65601;-0.83797;9.74331;0.68701;-0.87547;-0.03961;-0.031;0.0375;0.90713;-0.03848;-0.08613;-33.48;16.92;16.92;36.151;-4.03;-94.847;8677;2021-02-12 15:48:04:345
9.7037;0.65601;-0.83797;9.74331;0.68701;-0.87547;-0.03961;-0.031;0.0375;0.89919;-0.02138;-0.0843;-32.52;18.0;16.14;32.525;-4.017;-95.134;8727;2021-02-12 15:48:04:395
9.70849;0.62728;-0.82839;9.73961;0.67875;-0.92179;-0.06943;-0.04668;0.0934;0.89919;-0.02138;-0.0843;-32.52;18.0;16.14;32.525;-4.017;-95.134;8776;2021-02-12 15:48:04:444
9.70849;0.62728;-0.82839;9.73961;0.67875;-0.92179;-0.06943;-0.04668;0.0934;0.87842;0.01527;-0.08186;-34.2;18.66;15.42;28.733;-3.969;-95.407;8826;2021-02-12 15:48:04:494
9.65821;0.63207;-0.84515;9.74007;0.66753;-0.9251;-0.06989;-0.03306;0.08234;0.87842;0.01527;-0.08186;-34.2;18.66;15.42;28.733;-3.969;-95.407;8876;2021-02-12 15:48:04:544
9.65821;0.63207;-0.84515;9.74007;0.66753;-0.9251;-0.06989;-0.03306;0.08234;0.87842;0.01527;-0.08186;-34.2;18.66;15.42;28.733;-3.969;-95.407;8927;2021-02-12 15:48:04:595
9.67497;0.61052;-0.84994;9.74133;0.66487;-0.91369;-0.07594;-0.04717;0.05417;0.84483;0.08002;-0.08369;-34.08;19.5;13.26;23.527;-3.903;-95.426;8976;2021-02-12 15:48:04:644
9.67497;0.61052;-0.84994;9.74133;0.66487;-0.91369;-0.07594;-0.04717;0.05417;0.84483;0.08002;-0.08369;-34.08;19.5;13.26;23.527;-3.903;-95.426;9027;2021-02-12 15:48:04:695
9.68455;0.60813;-0.86191;9.74518;0.66613;-0.87066;-0.04148;-0.04842;0.02551;0.79901;0.13683;-0.0898;-34.68;21.54;13.02;21.954;-3.895;-95.105;9076;2021-02-12 15:48:04:744
9.68455;0.60813;-0.86191;9.74518;0.66613;-0.87066;-0.04148;-0.04842;0.02551;0.79901;0.13683;-0.0898;-34.68;21.54;13.02;21.954;-3.895;-95.105;9127;2021-02-12 15:48:04:795
9.71088;0.60813;-0.86431;9.75054;0.67851;-0.79817;-0.05402;-0.04884;-0.05416;0.79901;0.13683;-0.0898;-34.68;21.54;13.02;21.954;-3.895;-95.105;9176;2021-02-12 15:48:04:844
9.71088;0.60813;-0.86431;9.75054;0.67851;-0.79817;-0.05402;-0.04884;-0.05416;0.74892;0.17104;-0.09102;-34.98;21.3;10.32;16.89;-3.967;-94.68;9227;2021-02-12 15:48:04:895
9.71567;0.62728;-0.86191;9.75512;0.68546;-0.73357;-0.03945;-0.05818;-0.12835;0.74892;0.17104;-0.09102;-34.98;21.3;10.32;16.89;-3.967;-94.68;9277;2021-02-12 15:48:04:945
9.71567;0.62728;-0.86191;9.75512;0.68546;-0.73357;-0.03945;-0.05818;-0.12835;0.69028;0.17654;-0.08552;-35.7;22.08;8.64;14.365;-4.008;-94.3;9326;2021-02-12 15:48:04:994
9.7444;0.6201;-0.87388;9.75799;0.68943;-0.69043;-0.0112;-0.07412;-0.19782;0.69028;0.17654;-0.08552;-35.7;22.08;8.64;14.365;-4.008;-94.3;9376;2021-02-12 15:48:05:044
9.75398;0.62249;-0.88825;9.75799;0.68943;-0.69043;-0.0112;-0.07412;-0.19782;0.62797;0.15027;-0.0672;-35.52;22.14;7.5;12.512;-4.031;-94.047;9427;2021-02-12 15:48:05:095
9.75398;0.62249;-0.88825;9.75932;0.68531;-0.67565;-0.00534;-0.06282;-0.22696;0.62797;0.15027;-0.0672;-35.52;22.14;7.5;12.512;-4.031;-94.047;9476;2021-02-12 15:48:05:144
9.7444;0.6177;-0.89783;9.75932;0.68531;-0.67565;-0.00534;-0.06282;-0.22696;0.62797;0.15027;-0.0672;-35.52;22.14;7.5;12.512;-4.031;-94.047;9527;2021-02-12 15:48:05:195
9.7444;0.6177;-0.89783;9.75684;0.65928;-0.7347;-0.03159;-0.03679;-0.19185;0.5681;0.10201;-0.03848;-35.88;22.02;6.96;10.405;-4.007;-93.96;9577;2021-02-12 15:48:05:245
9.76116;0.63207;-0.9098;9.75684;0.65928;-0.7347;-0.03159;-0.03679;-0.19185;0.5681;0.10201;-0.03848;-35.88;22.02;6.96;10.405;-4.007;-93.96;9627;2021-02-12 15:48:05:295
9.76116;0.63207;-0.9098;9.75594;0.63247;-0.7694;-0.02112;0.00678;-0.17631;0.49969;0.04093;-0.00367;-36.24;22.14;5.76;7.389;-3.698;-94.509;9676;2021-02-12 15:48:05:344
9.7468;0.63686;-0.94092;9.75594;0.63247;-0.7694;-0.02112;0.00678;-0.17631;0.49969;0.04093;-0.00367;-36.24;22.14;5.76;7.389;-3.698;-94.509;9727;2021-02-12 15:48:05:395
9.7468;0.63686;-0.94092;9.75323;0.61246;-0.81836;-0.03451;0.04168;-0.09598;-0.27855;-0.10812;0.09285;-36.24;22.14;5.76;7.389;-3.698;-94.509;9777;2021-02-12 15:48:05:445
9.71567;0.63925;-0.9481;9.75323;0.61246;-0.81836;-0.03451;0.04168;-0.09598;-0.27855;-0.10812;0.09285;-36.36;22.38;5.76;6.986;-3.581;-94.796;9826;2021-02-12 15:48:05:494
9.71567;0.63925;-0.9481;9.74634;0.56926;-0.92475;-0.03451;0.04168;-0.09598;-0.27855;-0.10812;0.09285;-36.36;22.38;5.76;6.986;-3.581;-94.796;9877;2021-02-12 15:48:05:545
9.72046;0.62728;-0.9481;9.74634;0.56926;-0.92475;-0.00749;0.05004;0.01488;-0.35919;-0.15027;0.11057;-36.48;23.04;5.34;3.6;-3.328;-95.42;9927;2021-02-12 15:48:05:595
9.72046;0.62728;-0.9481;9.73801;0.56839;-1.00924;-0.00749;0.05004;0.01488;-0.35919;-0.15027;0.11057;-36.48;23.04;5.34;3.6;-3.328;-95.42;9977;2021-02-12 15:48:05:645
9.71328;0.62968;-0.94332;9.73801;0.56839;-1.00924;-0.02368;0.09148;0.0976;-0.43555;-0.14783;0.10751;-36.72;22.86;4.98;2.642;-3.323;-95.917;10026;2021-02-12 15:48:05:694
9.71328;0.62968;-0.94332;9.731;0.53902;-1.08973;-0.02368;0.09148;0.0976;-0.43555;-0.14783;0.10751;-36.72;22.86;4.98;2.642;-3.323;-95.917;10077;2021-02-12 15:48:05:745
9.70131;0.63207;-0.94092;9.731;0.53902;-1.08973;-0.02091;0.09003;0.15193;-0.43555;-0.14783;0.10751;-36.72;22.86;4.98;2.642;-3.323;-95.917;10127;2021-02-12 15:48:05:795
9.70131;0.63207;-0.94092;9.72687;0.54225;-1.12442;-0.02091;0.09003;0.15193;-0.51068;-0.13134;0.08796;-36.0;22.44;5.22;1.99;-3.17;-96.594;10176;2021-02-12 15:48:05:844
9.68933;0.64404;-0.96486;9.72687;0.54225;-1.12442;-0.04298;0.09442;0.18286;-0.51068;-0.13134;0.08796;-36.0;22.44;5.22;1.99;-3.17;-96.594;10226;2021-02-12 15:48:05:894
9.68933;0.64404;-0.96486;9.72638;0.5706;-1.11463;-0.04298;0.09442;0.18286;-0.5791;-0.08613;0.06475;-36.24;22.5;5.28;1.984;-3.336;-96.538;10277;2021-02-12 15:48:05:945
9.6606;0.63446;-0.94332;9.72638;0.5706;-1.11463;-0.03533;0.04374;0.16215;-0.5791;-0.08613;0.06475;-36.24;22.5;5.28;1.984;-3.336;-96.538;10327;2021-02-12 15:48:05:995
9.6606;0.63446;-0.94332;9.7272;0.60278;-1.09022;-0.03533;0.04374;0.16215;-0.5791;-0.08613;0.06475;-36.24;22.5;5.28;1.984;-3.336;-96.538;10377;2021-02-12 15:48:06:045
9.70609;0.6608;-0.94092;9.7272;0.60278;-1.09022;-0.06986;0.03004;0.12665;-0.64874;-0.03176;0.04276;-36.0;23.04;4.68;2.181;-3.524;-96.395;10427;2021-02-12 15:48:06:095
9.70609;0.6608;-0.94092;9.73016;0.63838;-1.04256;-0.04953;0.0042;0.07883;-0.64874;-0.03176;0.04276;-36.0;23.04;4.68;2.181;-3.524;-96.395;10479;2021-02-12 15:48:06:147
9.69412;0.65601;-0.95529;9.73016;0.63838;-1.04256;-0.04953;0.0042;0.07883;-0.71166;0.00489;0.03787;-36.96;22.62;5.58;4.558;-3.732;-96.116;10527;2021-02-12 15:48:06:195
9.69412;0.65601;-0.95529;9.73412;0.67119;-0.98322;-0.04953;0.0042;0.07883;-0.71166;0.00489;0.03787;-36.96;22.62;5.58;4.558;-3.732;-96.116;10579;2021-02-12 15:48:06:247
9.71328;0.64643;-0.94092;9.73412;0.67119;-0.98322;-0.02292;-0.03618;0.01355;-0.75992;0.0226;0.04887;-36.78;22.32;5.52;5.248;-3.925;-95.768;10626;2021-02-12 15:48:06:294
9.71328;0.64643;-0.94092;9.73841;0.68997;-0.9261;-0.02292;-0.03618;0.01355;-0.75992;0.0226;0.04887;-36.78;22.32;5.52;5.248;-3.925;-95.768;10676;2021-02-12 15:48:06:344
9.72046;0.65362;-0.92177;9.73841;0.68997;-0.9261;-0.02043;-0.04002;-0.02495;-0.75992;0.0226;0.04887;-36.78;22.32;5.52;5.248;-3.925;-95.768;10726;2021-02-12 15:48:06:394
9.73004;0.65122;-0.89064;9.74423;0.69043;-0.86242;-0.02043;-0.04002;-0.02495;-0.80268;0.01588;0.07697;-36.18;22.26;5.82;6.524;-4.037;-95.058;10777;2021-02-12 15:48:06:445
9.73004;0.65122;-0.89064;9.74423;0.69043;-0.86242;0.00289;-0.03444;-0.09885;-0.80268;0.01588;0.07697;-36.18;22.26;5.82;6.524;-4.037;-95.058;10826;2021-02-12 15:48:06:494
9.76355;0.65362;-0.91698;9.74847;0.68157;-0.82048;0.00289;-0.03444;-0.09885;-0.24923;0.02627;0.03543;-35.76;21.72;6.6;9.18;-3.985;-94.811;10876;2021-02-12 15:48:06:544
9.76355;0.65362;-0.91698;9.74847;0.68157;-0.82048;-0.00361;-0.02493;-0.12723;-0.24923;0.02627;0.03543;-35.76;21.72;6.6;9.18;-3.985;-94.811;10926;2021-02-12 15:48:06:594
9.77074;0.66559;-0.91219;9.7472;0.65506;-0.85635;-0.00361;-0.02493;-0.12723;-0.24923;0.02627;0.03543;-35.76;21.72;6.6;9.18;-3.985;-94.811;10977;2021-02-12 15:48:06:645
9.77074;0.66559;-0.91219;9.7472;0.65506;-0.85635;0.02398;0.04252;-0.02561;-0.27122;-0.02199;0.06048;-36.3;22.02;6.48;6.612;-3.83;-95.021;11027;2021-02-12 15:48:06:695
9.76834;0.67756;-0.9098;9.74734;0.6267;-0.87578;0.02398;0.04252;-0.02561;-0.27122;-0.02199;0.06048;-36.3;22.02;6.48;6.612;-3.83;-95.021;11077;2021-02-12 15:48:06:745
9.76834;0.67756;-0.9098;9.74734;0.6267;-0.87578;0.02644;0.0601;0.00691;-0.28527;-0.0733;0.07147;-35.88;22.08;7.56;11.056;-3.664;-95.134;11127;2021-02-12 15:48:06:795
9.76834;0.66559;-0.88585;9.74535;0.60246;-0.91415;0.02644;0.0601;0.00691;-0.28527;-0.0733;0.07147;-35.88;22.08;7.56;11.056;-3.664;-95.134;11177;2021-02-12 15:48:06:845
9.76834;0.66559;-0.88585;9.74535;0.60246;-0.91415;0.0248;0.0798;0.0606;-0.29077;-0.10507;0.0672;-35.34;21.84;7.98;11.007;-3.522;-95.359;11226;2021-02-12 15:48:06:894
9.83299;0.67516;-0.88825;9.74155;0.59421;-0.95889;0.0248;0.0798;0.0606;-0.29077;-0.10507;0.0672;-35.34;21.84;7.98;11.007;-3.522;-95.359;11277;2021-02-12 15:48:06:945
9.83299;0.67516;-0.88825;9.74155;0.59421;-0.95889;-0.06315;0.09385;0.07252;-0.29077;-0.10507;0.0672;-35.34;21.84;7.98;11.007;-3.522;-95.359;11327;2021-02-12 15:48:06:995
9.71806;0.71587;-0.8691;9.73907;0.61174;-0.973;-0.06315;0.09385;0.07252;-0.29138;-0.13683;0.04826;-35.64;21.72;11.58;19.013;-3.576;-95.705;11376;2021-02-12 15:48:07:044
9.71806;0.71587;-0.8691;9.73907;0.61174;-0.973;6.8E-4;0.06918;0.16432;-0.29138;-0.13683;0.04826;-35.64;21.72;11.58;19.013;-3.576;-95.705;11427;2021-02-12 15:48:07:095
9.67976;0.67038;-0.83558;9.73516;0.6332;-0.99801;6.8E-4;0.06918;0.16432;-0.28161;-0.08491;0.02627;-34.44;20.94;10.68;17.85;-3.702;-95.853;11477;2021-02-12 15:48:07:145
9.67976;0.67038;-0.83558;9.73516;0.6332;-0.99801;-0.0386;0.04203;0.17437;-0.28161;-0.08491;0.02627;-34.44;20.94;10.68;17.85;-3.702;-95.853;11527;2021-02-12 15:48:07:195
9.67258;0.68953;-0.82839;9.73624;0.66024;-0.96961;-0.03334;0.025;0.14284;-0.26573;-0.03115;0.00916;-34.44;20.94;10.68;17.85;-3.702;-95.853;11577;2021-02-12 15:48:07:245
9.67258;0.68953;-0.82839;9.73624;0.66024;-0.96961;-0.03334;0.025;0.14284;-0.26573;-0.03115;0.00916;-33.84;21.36;12.24;20.189;-3.86;-95.687;11626;2021-02-12 15:48:07:294
9.62948;0.69671;-0.81882;9.73716;0.67681;-0.94866;-0.06554;0.02066;0.09209;-0.26573;-0.03115;0.00916;-33.84;21.36;12.24;20.189;-3.86;-95.687;11677;2021-02-12 15:48:07:345
9.62948;0.69671;-0.81882;9.73716;0.67681;-0.94866;-0.06554;0.02066;0.09209;-0.24251;0.01161;0.00428;-34.26;20.4;12.66;23.312;-3.957;-95.565;11727;2021-02-12 15:48:07:395
9.67736;0.71108;-0.82121;9.73991;0.69757;-0.90441;-0.09092;0.00509;0.02984;-0.24251;0.01161;0.00428;-34.26;20.4;12.66;23.312;-3.957;-95.565;11777;2021-02-12 15:48:07:445
9.67736;0.71108;-0.82121;9.73991;0.69757;-0.90441;-0.09092;0.00509;0.02984;-0.20953;0.07636;0.011;-34.26;20.04;14.16;25.684;-4.079;-95.305;11827;2021-02-12 15:48:07:495
9.65342;0.7039;-0.83558;9.74587;0.70868;-0.82845;-0.03637;-0.00343;-0.02692;-0.20953;0.07636;0.011;-34.26;20.04;14.16;25.684;-4.079;-95.305;11877;2021-02-12 15:48:07:545
9.65342;0.7039;-0.83558;9.74587;0.70868;-0.82845;-0.03637;-0.00343;-0.02692;-0.20953;0.07636;0.011;-34.26;20.04;14.16;25.684;-4.079;-95.305;11927;2021-02-12 15:48:07:595
9.69891;0.71347;-0.83318;9.75174;0.70739;-0.75741;-0.05415;0.01476;-0.08688;-0.16738;0.1014;0.02382;-34.44;20.4;13.98;26.747;-4.137;-94.441;11976;2021-02-12 15:48:07:644
9.69891;0.71347;-0.83318;9.75174;0.70739;-0.75741;-0.05415;0.01476;-0.08688;-0.16738;0.1014;0.02382;-34.44;20.4;13.98;26.747;-4.137;-94.441;12027;2021-02-12 15:48:07:695
9.7444;0.72065;-0.83558;9.75654;0.69912;-0.70109;-0.04801;0.01736;-0.1237;-0.12462;0.10079;0.03482;-35.04;19.98;13.74;26.972;-4.088;-94.11;12077;2021-02-12 15:48:07:745
9.7444;0.72065;-0.83558;9.75654;0.69912;-0.70109;-0.04801;0.01736;-0.1237;-0.12462;0.10079;0.03482;-35.04;19.98;13.74;26.972;-4.088;-94.11;12127;2021-02-12 15:48:07:795
9.73482;0.72065;-0.82839;9.75749;0.69131;-0.69562;0.01049;0.03994;-0.15841;-0.07575;0.05009;0.03848;-35.04;19.98;13.74;26.972;-4.088;-94.11;12176;2021-02-12 15:48:07:844
9.73482;0.72065;-0.82839;9.75749;0.69131;-0.69562;0.01049;0.03994;-0.15841;-0.07575;0.05009;0.03848;-35.04;19.14;13.98;28.109;-4.042;-94.078;12227;2021-02-12 15:48:07:895
9.7851;0.73502;-0.81642;9.75682;0.68224;-0.71381;-0.05713;0.03481;-0.13414;-0.07575;0.05009;0.03848;-35.04;19.14;13.98;28.109;-4.042;-94.078;12277;2021-02-12 15:48:07:945
9.7851;0.73502;-0.81642;9.75682;0.68224;-0.71381;-0.05713;0.03481;-0.13414;-0.02443;0.00428;0.03299;-34.74;18.6;13.8;28.004;-3.989;-94.184;12326;2021-02-12 15:48:07:994
9.75877;0.73741;-0.85473;9.75568;0.67466;-0.73622;0.01601;0.06173;-0.07174;-0.02443;0.00428;0.03299;-34.74;18.6;13.8;28.004;-3.989;-94.184;12377;2021-02-12 15:48:08:045
9.75877;0.73741;-0.85473;9.75568;0.67466;-0.73622;0.01601;0.06173;-0.07174;0.02199;-0.06353;0.01649;-34.14;18.42;14.16;29.246;-3.945;-94.316;12426;2021-02-12 15:48:08:094
9.74919;0.73023;-0.83558;9.75237;0.6695;-0.78317;-0.01526;0.05388;-0.03607;0.02199;-0.06353;0.01649;-34.14;18.42;14.16;29.246;-3.945;-94.316;12476;2021-02-12 15:48:08:144
9.74919;0.73023;-0.83558;9.75237;0.6695;-0.78317;-0.01526;0.05388;-0.03607;0.02199;-0.06353;0.01649;-34.14;18.42;14.16;29.246;-3.945;-94.316;12527;2021-02-12 15:48:08:195
9.76355;0.73023;-0.83318;9.74667;0.67255;-0.84883;-0.01526;0.05388;-0.03607;0.07453;-0.08552;-0.0055;-33.54;18.78;14.82;29.306;-3.933;-94.977;12576;2021-02-12 15:48:08:244
9.76355;0.73023;-0.83318;9.74667;0.67255;-0.84883;0.00195;0.06168;0.01711;0.07453;-0.08552;-0.0055;-33.54;18.78;14.82;29.306;-3.933;-94.977;12627;2021-02-12 15:48:08:295
9.73004;0.7422;-0.84755;9.74106;0.68429;-0.90212;0.00195;0.06168;0.01711;0.12278;-0.10079;-0.02749;-33.48;19.32;14.46;27.055;-4.001;-95.291;12677;2021-02-12 15:48:08:345
9.73004;0.7422;-0.84755;9.74106;0.68429;-0.90212;-0.03578;0.0204;0.05721;0.12278;-0.10079;-0.02749;-33.48;19.32;14.46;27.055;-4.001;-95.291;12727;2021-02-12 15:48:08:395
9.66539;0.71587;-0.85234;9.73413;0.70501;-0.95925;-0.01606;0.00857;0.13427;0.16493;-0.06842;-0.04032;-33.48;19.32;14.46;27.055;-4.001;-95.291;12777;2021-02-12 15:48:08:445
9.66539;0.71587;-0.85234;9.73413;0.70501;-0.95925;-0.01606;0.00857;0.13427;0.16493;-0.06842;-0.04032;-33.12;19.08;14.28;26.546;-4.123;-95.628;12828;2021-02-12 15:48:08:496
9.67018;0.70868;-0.84036;9.73135;0.72656;-0.97124;-0.03654;-0.00503;0.1432;0.16493;-0.06842;-0.04032;-33.12;19.08;14.28;26.546;-4.123;-95.628;12878;2021-02-12 15:48:08:546
9.67018;0.70868;-0.84036;9.73135;0.72656;-0.97124;-0.03654;-0.00503;0.1432;0.20464;-0.02688;-0.04887;-33.42;18.12;15.3;29.614;-4.249;-95.7;12926;2021-02-12 15:48:08:594
9.63906;0.71347;-0.84036;9.73101;0.7425;-0.96255;-0.04144;-0.05322;0.07571;0.20464;-0.02688;-0.04887;-33.42;18.12;15.3;29.614;-4.249;-95.7;12977;2021-02-12 15:48:08:645
9.63906;0.71347;-0.84036;9.73101;0.7425;-0.96255;-0.04144;-0.05322;0.07571;0.2303;0.99021;-0.02566;-33.66;18.36;15.72;31.366;-4.342;-95.649;13027;2021-02-12 15:48:08:695
10.01734;0.55785;-1.5682;9.7442;0.74295;-0.818;-1.39185;0.53562;0.38871;0.2303;0.99021;-0.02566;-33.66;18.36;15.72;31.366;-4.342;-95.649;13077;2021-02-12 15:48:08:745
10.01734;0.55785;-1.5682;9.7442;0.74295;-0.818;-1.39185;0.53562;0.38871;0.2303;0.99021;-0.02566;-33.66;18.36;15.72;31.366;-4.342;-95.649;13127;2021-02-12 15:48:08:795
9.08121;0.14365;-1.09654;9.73771;0.77693;-0.86244;-0.54096;-0.70563;-0.64917;0.24312;0.21869;-0.08674;-34.26;18.48;14.58;29.943;-4.544;-95.061;13178;2021-02-12 15:48:08:846
9.08121;0.14365;-1.09654;9.73771;0.77693;-0.86244;-0.54096;-0.70563;-0.64917;0.24312;0.21869;-0.08674;-34.26;18.48;14.58;29.943;-4.544;-95.061;13227;2021-02-12 15:48:08:895
9.4978;0.45011;-1.64242;9.73213;0.77557;-0.92444;-0.54096;-0.70563;-0.64917;-0.08919;0.14233;0.03421;-33.96;18.96;13.86;26.271;-4.536;-95.426;13277;2021-02-12 15:48:08:945
9.4978;0.45011;-1.64242;9.73213;0.77557;-0.92444;-0.32617;-0.10234;-0.32657;-0.08919;0.14233;0.03421;-33.96;18.96;13.86;26.271;-4.536;-95.426;13326;2021-02-12 15:48:08:994
9.7851;0.69671;-1.21386;9.72586;0.7368;-1.01743;-0.32617;-0.10234;-0.32657;-0.2138;0.01772;0.04032;-34.02;18.24;14.76;28.912;-4.309;-95.972;13377;2021-02-12 15:48:09:045
9.7851;0.69671;-1.21386;9.72586;0.7368;-1.01743;-0.06983;-0.04427;-0.0238;-0.2138;0.01772;0.04032;-34.02;18.24;14.76;28.912;-4.309;-95.972;13427;2021-02-12 15:48:09:095
9.61751;0.7039;-1.1133;9.7178;0.71304;-1.10737;-0.06983;-0.04427;-0.0238;-0.2138;0.01772;0.04032;-34.02;18.24;14.76;28.912;-4.309;-95.972;13477;2021-02-12 15:48:09:145
9.61751;0.7039;-1.1133;9.7178;0.71304;-1.10737;-0.10771;-0.00391;0.2093;-0.24984;-0.10934;0.04337;-33.6;18.54;16.38;29.222;-4.17;-96.501;13526;2021-02-12 15:48:09:194
9.53132;0.67756;-0.89543;9.72257;0.68809;-1.08106;-0.10771;-0.00391;0.2093;-0.24984;-0.10934;0.04337;-33.6;18.54;16.38;29.222;-4.17;-96.501;13577;2021-02-12 15:48:09:245
9.53132;0.67756;-0.89543;9.72257;0.68809;-1.08106;0.64933;0.22175;-0.3526;-0.24862;0.5339;0.06842;-33.66;18.18;19.32;36.457;-4.023;-96.345;13626;2021-02-12 15:48:09:294
9.43316;0.60334;-1.71904;9.74043;0.6545;-0.93058;0.64933;0.22175;-0.3526;-0.24862;0.5339;0.06842;-33.66;18.18;19.32;36.457;-4.023;-96.345;13677;2021-02-12 15:48:09:345
9.43316;0.60334;-1.71904;9.74043;0.6545;-0.93058;0.22895;-0.13726;-0.8866;-0.24862;0.5339;0.06842;-33.66;18.18;19.32;36.457;-4.023;-96.345;13727;2021-02-12 15:48:09:395
9.86411;0.65601;-1.72622;9.72065;0.60495;-1.14605;0.22895;-0.13726;-0.8866;-0.32926;-0.08613;0.10507;-32.52;17.28;17.16;34.263;-3.537;-96.724;13778;2021-02-12 15:48:09:446
9.86411;0.65601;-1.72622;9.72065;0.60495;-1.14605;0.05316;0.48743;-0.30596;-0.32926;-0.08613;0.10507;-32.52;17.28;17.16;34.263;-3.537;-96.724;13827;2021-02-12 15:48:09:495
9.89524;1.14922;-1.72383;9.64247;0.88166;-1.55431;0.05316;0.48743;-0.30596;-0.1179;-0.16982;0.04887;-32.16;16.98;18.12;32.333;-5.158;-99.157;13877;2021-02-12 15:48:09:545
9.89524;1.14922;-1.72383;9.64247;0.88166;-1.55431;0.12663;0.1583;-0.27824;-0.1179;-0.16982;0.04887;-32.16;16.98;18.12;32.333;-5.158;-99.157;13927;2021-02-12 15:48:09:595
9.71806;0.71108;-2.21464;9.574;1.08505;-1.82528;0.12663;0.1583;-0.27824;0.17898;-0.30055;-0.02199;-31.92;16.5;19.44;31.389;-6.352;-100.794;13977;2021-02-12 15:48:09:645
9.71806;0.71108;-2.21464;9.574;1.08505;-1.82528;-0.07353;-0.05868;0.22599;0.17898;-0.30055;-0.02199;-31.92;16.5;19.44;31.389;-6.352;-100.794;14027;2021-02-12 15:48:09:695
9.60314;0.89304;-1.81959;9.56662;0.85837;-1.97823;-0.07353;-0.05868;0.22599;0.17898;-0.30055;-0.02199;-31.92;16.5;19.44;31.389;-6.352;-100.794;14077;2021-02-12 15:48:09:745
9.57441;0.84994;-1.86508;9.56662;0.85837;-1.97823;-0.0995;-0.26581;0.1265;0.23885;-0.23335;-0.03543;-31.68;17.1;20.04;33.194;-5.022;-101.683;14127;2021-02-12 15:48:09:795
9.57441;0.84994;-1.86508;9.54341;0.8088;-2.10702;-0.0995;-0.26581;0.1265;0.23885;-0.23335;-0.03543;-31.68;17.1;20.04;33.194;-5.022;-101.683;14177;2021-02-12 15:48:09:845
9.23444;0.49081;-2.00395;9.54341;0.8088;-2.10702;-0.13058;-0.18514;0.14914;0.16677;-0.17776;-0.04643;-31.74;17.04;21.0;34.374;-4.731;-102.45;14227;2021-02-12 15:48:09:895
9.23444;0.49081;-2.00395;9.52311;0.74564;-2.2192;-0.13058;-0.18514;0.14914;0.16677;-0.17776;-0.04643;-31.74;17.04;21.0;34.374;-4.731;-102.45;14276;2021-02-12 15:48:09:944
9.18416;0.66319;-1.88424;9.52311;0.74564;-2.2192;-0.31138;-0.21624;0.20533;0.16677;-0.17776;-0.04643;-31.74;17.04;21.0;34.374;-4.731;-102.45;14327;2021-02-12 15:48:09:995
9.18416;0.66319;-1.88424;9.52168;0.69557;-2.24148;-0.31138;-0.21624;0.20533;-0.05131;0.10263;-0.00367;-30.72;16.74;21.18;34.456;-4.067;-103.247;14377;2021-02-12 15:48:10:045
9.42597;0.52912;-2.24097;9.52168;0.69557;-2.24148;-0.37077;-0.14142;0.15917;-0.05131;0.10263;-0.00367;-30.72;16.74;21.18;34.456;-4.067;-103.247;14426;2021-02-12 15:48:10:094
9.42597;0.52912;-2.24097;9.54869;0.64376;-2.13977;-0.37077;-0.14142;0.15917;-0.15333;0.09163;0.00611;-30.84;16.44;20.52;36.917;-3.764;-102.631;14477;2021-02-12 15:48:10:145
9.7444;1.37906;-2.19309;9.54869;0.64376;-2.13977;0.06086;0.45546;0.1473;-0.15333;0.09163;0.00611;-30.84;16.44;20.52;36.917;-3.764;-102.631;14527;2021-02-12 15:48:10:195
9.7444;1.37906;-2.19309;9.55019;0.68835;-2.11906;0.06086;0.45546;0.1473;0.14539;0.23396;-0.06231;-31.08;16.26;21.3;36.836;-4.025;-102.51;14576;2021-02-12 15:48:10:244
9.52174;1.19471;-2.72939;9.55019;0.68835;-2.11906;-0.05507;0.45934;-0.7509;0.14539;0.23396;-0.06231;-31.08;16.26;21.3;36.836;-4.025;-102.51;14627;2021-02-12 15:48:10:295
9.52174;1.19471;-2.72939;9.57162;0.76082;-1.99391;-0.05507;0.45934;-0.7509;0.14539;0.23396;-0.06231;-31.08;16.26;21.3;36.836;-4.025;-102.51;14676;2021-02-12 15:48:10:344
9.2081;0.24421;-2.98796;9.57162;0.76082;-1.99391;-0.13178;-0.29749;-0.04797;0.23091;0.01038;-0.04154;-31.5;15.54;21.06;37.374;-4.45;-101.767;14726;2021-02-12 15:48:10:394
9.2081;0.24421;-2.98796;9.3584;0.52821;-2.883;-0.13178;-0.29749;-0.04797;0.23091;0.01038;-0.04154;-31.5;15.54;21.06;37.374;-4.45;-101.767;14777;2021-02-12 15:48:10:445
9.38767;1.14682;-2.41336;9.3584;0.52821;-2.883;-0.01933;0.35966;0.24355;0.33903;-0.06414;-0.04093;-31.44;16.08;20.94;31.43;-3.088;-107.122;14827;2021-02-12 15:48:10:495
9.38767;1.14682;-2.41336;9.40303;0.77943;-2.67319;-0.01933;0.35966;0.24355;0.33903;-0.06414;-0.04093;-31.44;16.08;20.94;31.43;-3.088;-107.122;14876;2021-02-12 15:48:10:544
9.52892;0.76375;-2.82755;9.40303;0.77943;-2.67319;0.15162;0.01558;-0.05685;0.33903;-0.06414;-0.04093;-31.44;16.08;20.94;31.43;-3.088;-107.122;14927;2021-02-12 15:48:10:595
9.52892;0.76375;-2.82755;9.36425;0.71994;-2.82186;0.15162;0.01558;-0.05685;0.34941;-0.21686;-0.03665;-31.5;16.62;20.22;27.556;-4.21;-106.77;14977;2021-02-12 15:48:10:645
9.23204;1.12288;-2.52828;9.36425;0.71994;-2.82186;-0.10564;0.42962;0.38678;0.34941;-0.21686;-0.03665;-31.5;16.62;20.22;27.556;-4.21;-106.77;15027;2021-02-12 15:48:10:695
9.11951;0.14605;-2.75812;9.33832;0.71011;-2.90893;-0.10564;0.42962;0.38678;0.38546;-0.24862;-0.07453;-31.14;16.68;20.76;28.984;-4.152;-107.302;15077;2021-02-12 15:48:10:745
9.11951;0.14605;-2.75812;9.33832;0.71011;-2.90893;-0.15202;-0.65476;0.17636;0.38546;-0.24862;-0.07453;-31.14;16.68;20.76;28.984;-4.152;-107.302;15127;2021-02-12 15:48:10:795
9.05727;1.04866;-3.12204;9.31443;0.6145;-3.00569;-0.15202;-0.65476;0.17636;0.15882;-0.10324;-0.02382;-30.42;17.1;21.0;29.346;-3.593;-107.884;15177;2021-02-12 15:48:10:845
9.05727;1.04866;-3.12204;9.31443;0.6145;-3.00569;0.16735;0.83314;0.20455;0.15882;-0.10324;-0.02382;-30.42;17.1;21.0;29.346;-3.593;-107.884;15227;2021-02-12 15:48:10:895
9.72764;0.75417;-3.23217;9.27815;0.72477;-3.09208;0.16735;0.83314;0.20455;0.15882;-0.10324;-0.02382;-30.42;17.1;21.0;29.346;-3.593;-107.884;15277;2021-02-12 15:48:10:945
9.72764;0.75417;-3.23217;9.27815;0.72477;-3.09208;-0.2605;-0.36731;-0.08969;0.17287;-0.08125;-0.11179;-30.72;17.16;20.94;27.291;-4.238;-108.431;15327;2021-02-12 15:48:10:995
8.86094;0.9481;-2.72939;9.23808;0.76868;-3.19959;-0.2605;-0.36731;-0.08969;0.17287;-0.08125;-0.11179;-30.72;17.16;20.94;27.291;-4.238;-108.431;15377;2021-02-12 15:48:11:045
8.86094;0.9481;-2.72939;9.23808;0.76868;-3.19959;-0.08648;-0.18852;0.01938;-0.03115;-0.08491;-0.07941;-30.66;17.52;21.12;25.019;-4.496;-109.103;15430;2021-02-12 15:48:11:098
8.52336;1.02232;-3.10289;9.19452;0.83252;-3.30729;-0.08648;-0.18852;0.01938;-0.03115;-0.08491;-0.07941;-30.66;17.52;21.12;25.019;-4.496;-109.103;15478;2021-02-12 15:48:11:146
8.52336;1.02232;-3.10289;9.19452;0.83252;-3.30729;0.17253;0.24929;-0.12483;-0.03115;-0.08491;-0.07941;-30.66;17.52;21.12;25.019;-4.496;-109.103;15527;2021-02-12 15:48:11:195
9.06445;0.4142;-3.61524;9.15723;0.94977;-3.37839;0.17253;0.24929;-0.12483;-0.10568;-0.11545;-0.1069;-31.02;16.5;22.44;25.828;-5.558;-110.251;15576;2021-02-12 15:48:11:244
9.06445;0.4142;-3.61524;9.15723;0.94977;-3.37839;-0.03505;0.14226;0.15305;-0.10568;-0.11545;-0.1069;-31.02;16.5;22.44;25.828;-5.558;-110.251;15627;2021-02-12 15:48:11:295
9.10754;1.10852;-3.74693;9.11973;1.0064;-3.46238;-0.03505;0.14226;0.15305;-0.16493;-0.18265;-0.05681;-30.42;15.84;22.86;28.938;-5.89;-110.79;15676;2021-02-12 15:48:11:344
9.10754;1.10852;-3.74693;9.11973;1.0064;-3.46238;0.41721;-0.05126;-0.05492;-0.16493;-0.18265;-0.05681;-30.42;15.84;22.86;28.938;-5.89;-110.79;15727;2021-02-12 15:48:11:395
9.26077;2.16915;-3.19386;9.06097;1.09047;-3.58889;0.41721;-0.05126;-0.05492;0.07636;-0.09468;-0.04948;-30.06;15.0;23.82;30.677;-6.384;-111.608;15776;2021-02-12 15:48:11:444
9.26077;2.16915;-3.19386;9.06097;1.09047;-3.58889;-0.63673;-0.45627;-0.32889;0.07636;-0.09468;-0.04948;-30.06;15.0;23.82;30.677;-6.384;-111.608;15826;2021-02-12 15:48:11:494
8.86333;1.78368;-3.14598;9.01635;1.14637;-3.68263;-0.63673;-0.45627;-0.32889;0.07636;-0.09468;-0.04948;-30.06;15.0;23.82;30.677;-6.384;-111.608;15876;2021-02-12 15:48:11:544
