ACCELEROMETER X (m/s²);ACCELEROMETER Y (m/s²);ACCELEROMETER Z (m/s²);GRAVITY X (m/s²);GRAVITY Y (m/s²);GRAVITY Z (m/s²);LINEAR ACCELERATION X (m/s²);LINEAR ACCELERATION Y (m/s²);LINEAR ACCELERATION Z (m/s²);GYROSCOPE X (rad/s);GYROSCOPE Y (rad/s);GYROSCOPE Z (rad/s);MAGNETIC FIELD X (μT);MAGNETIC FIELD Y (μT);MAGNETIC FIELD Z (μT);ORIENTATION Z (azimuth °);ORIENTATION X (pitch °);ORIENTATION Y (roll °);Time since start in ms ;YYYY-MO-DD HH-MI-SS_SSS
-1.02711;9.61033;-0.67995;-0.86543;9.74696;-0.64668;-0.18588;-0.09949;0.06408;-0.02138;0.31582;-0.08125;-8.4;-32.28;15.96;268.777;-83.675;126.769;26;2021-02-12 15:49:32:059
-1.05105;9.65582;-0.65601;-0.93754;9.74028;-0.64684;-0.10669;-0.13907;0.0184;-0.02138;0.31582;-0.08125;-8.4;-32.28;15.96;268.777;-83.675;126.769;76;2021-02-12 15:49:32:109
-1.05105;9.65582;-0.65601;-0.93754;9.74028;-0.64684;-0.10669;-0.13907;0.0184;-0.02138;0.31582;-0.08125;-8.4;-32.28;15.96;268.777;-83.675;126.769;126;2021-02-12 15:49:32:159
-1.04148;9.63427;-0.61531;-0.98766;9.73506;-0.65082;-0.07524;-0.12362;0.04132;-0.03238;0.46243;-0.07514;-7.74;-31.68;16.26;266.02;-83.33;124.603;176;2021-02-12 15:49:32:209
-1.04148;9.63427;-0.61531;-0.98766;9.73506;-0.65082;-0.07524;-0.12362;0.04132;-0.03238;0.46243;-0.07514;-7.74;-31.68;16.26;266.02;-83.33;124.603;226;2021-02-12 15:49:32:259
-1.06303;9.65342;-0.63207;-1.00632;9.73238;-0.66216;-0.04903;-0.13261;0.05573;-0.03787;0.61392;-0.03971;-7.92;-31.74;15.0;262.27;-83.073;123.383;276;2021-02-12 15:49:32:309
-1.06303;9.65342;-0.63207;-1.00632;9.73238;-0.66216;-0.04903;-0.13261;0.05573;-0.03787;0.61392;-0.03971;-7.92;-31.74;15.0;262.27;-83.073;123.383;326;2021-02-12 15:49:32:359
-1.08218;9.58399;-0.65841;-0.98687;9.73347;-0.67537;-0.07084;-0.08872;0.04503;-0.06048;0.75808;0.01344;-8.64;-32.16;14.1;258.363;-82.996;124.386;375;2021-02-12 15:49:32:408
-1.08218;9.58399;-0.65841;-0.98687;9.73347;-0.67537;-0.07084;-0.08872;0.04503;-0.06048;0.75808;0.01344;-8.64;-32.16;14.1;258.363;-82.996;124.386;426;2021-02-12 15:49:32:459
-1.03908;9.6223;-0.57221;-0.92969;9.73905;-0.676;-0.09512;-0.17158;0.0453;-0.06048;0.75808;0.01344;-8.64;-32.16;14.1;258.363;-82.996;124.386;476;2021-02-12 15:49:32:509
-1.03908;9.6223;-0.57221;-0.92969;9.73905;-0.676;-0.09512;-0.17158;0.0453;-0.07575;0.88392;0.05864;-9.84;-32.46;14.04;258.161;-83.269;126.022;526;2021-02-12 15:49:32:559
-1.01514;9.59835;-0.55067;-0.85516;9.74716;-0.65721;-0.13355;-0.13814;0.08318;-0.07575;0.88392;0.05864;-9.84;-32.46;14.04;258.161;-83.269;126.022;575;2021-02-12 15:49:32:608
-1.01514;9.59835;-0.55067;-0.85516;9.74716;-0.65721;-0.13355;-0.13814;0.08318;-0.09835;1.01098;0.08674;-11.4;-32.64;12.6;255.42;-83.686;127.543;626;2021-02-12 15:49:32:659
-1.01754;9.59835;-0.57461;-0.7879;9.75524;-0.62034;-0.20531;-0.15383;0.06229;-0.09835;1.01098;0.08674;-11.4;-32.64;12.6;255.42;-83.686;127.543;675;2021-02-12 15:49:32:708
-1.01754;9.59835;-0.57461;-0.7879;9.75524;-0.62034;-0.20531;-0.15383;0.06229;-0.09835;1.01098;0.08674;-11.4;-32.64;12.6;255.42;-83.686;127.543;725;2021-02-12 15:49:32:758
-0.95768;9.61751;-0.54588;-0.73815;9.76195;-0.5744;-0.20174;-0.14194;0.04755;-0.12034;1.13499;0.08002;-12.42;-33.0;10.38;246.64;-84.131;128.215;776;2021-02-12 15:49:32:809
-0.95768;9.61751;-0.54588;-0.73815;9.76195;-0.5744;-0.20174;-0.14194;0.04755;-0.12034;1.13499;0.08002;-12.42;-33.0;10.38;246.64;-84.131;128.215;825;2021-02-12 15:49:32:858
-0.94571;9.67018;-0.52194;-0.71527;9.76635;-0.52651;-0.22465;-0.0947;0.02349;-0.12828;1.24372;0.04704;-13.26;-32.82;8.04;239.358;-84.527;127.888;875;2021-02-12 15:49:32:908
-0.92177;9.65582;-0.49799;-0.71527;9.76635;-0.52651;-0.20626;-0.11167;0.00666;-0.12828;1.24372;0.04704;-13.26;-32.82;8.04;239.358;-84.527;127.888;926;2021-02-12 15:49:32:959
-0.92177;9.65582;-0.49799;-0.72984;9.76686;-0.49606;-0.20626;-0.11167;0.00666;-0.11179;1.35612;-0.00428;-14.58;-33.3;5.34;225.095;-84.837;124.203;975;2021-02-12 15:49:33:008
-0.91937;9.67018;-0.42138;-0.72984;9.76686;-0.49606;-0.18486;-0.09678;0.06585;-0.11179;1.35612;-0.00428;-14.58;-33.3;5.34;225.095;-84.837;124.203;1025;2021-02-12 15:49:33:058
-0.91937;9.67018;-0.42138;-0.74826;9.76615;-0.48261;-0.18486;-0.09678;0.06585;-0.11179;1.35612;-0.00428;-14.58;-33.3;5.34;225.095;-84.837;124.203;1076;2021-02-12 15:49:33:109
-0.91459;9.69412;-0.39265;-0.74826;9.76615;-0.48261;-0.14849;-0.05128;0.10512;-0.08125;1.4673;-0.05131;-15.3;-33.54;2.52;217.223;-84.791;122.821;1126;2021-02-12 15:49:33:159
-0.91459;9.69412;-0.39265;-0.77728;9.76298;-0.5004;-0.14849;-0.05128;0.10512;-0.08125;1.4673;-0.05131;-15.3;-33.54;2.52;217.223;-84.791;122.821;1175;2021-02-12 15:49:33:208
-0.92416;9.67497;-0.38068;-0.77728;9.76298;-0.5004;-0.14849;-0.05128;0.10512;-0.05498;1.56687;-0.07514;-14.4;-33.18;-0.6;203.672;-84.591;122.773;1226;2021-02-12 15:49:33:259
-0.92416;9.67497;-0.38068;-0.81032;9.75905;-0.52417;-0.12897;-0.09017;0.12442;-0.05498;1.56687;-0.07514;-14.4;-33.18;-0.6;203.672;-84.591;122.773;1276;2021-02-12 15:49:33:309
-0.92656;9.64145;-0.3304;-0.81032;9.75905;-0.52417;-0.14156;-0.12674;0.13072;-0.03665;1.67744;-0.07758;-14.4;-33.18;-0.6;203.672;-84.591;122.773;1326;2021-02-12 15:49:33:359
-0.92656;9.64145;-0.3304;-0.83315;9.75463;-0.5688;-0.14156;-0.12674;0.13072;-0.03665;1.67744;-0.07758;-13.8;-32.7;-3.54;193.937;-84.352;122.898;1375;2021-02-12 15:49:33:408
-0.94332;9.65103;-0.36152;-0.83315;9.75463;-0.5688;-0.11836;-0.11883;0.21224;-0.03665;1.67744;-0.07758;-13.8;-32.7;-3.54;193.937;-84.352;122.898;1426;2021-02-12 15:49:33:459
-0.94332;9.65103;-0.36152;-0.8459;9.753;-0.57784;-0.11836;-0.11883;0.21224;-0.05437;1.78861;-0.05925;-11.64;-33.36;-5.46;189.325;-84.096;124.322;1476;2021-02-12 15:49:33:509
-0.94092;9.60075;-0.35674;-0.8459;9.753;-0.57784;-0.10451;-0.15493;0.22782;-0.05437;1.78861;-0.05925;-11.64;-33.36;-5.46;189.325;-84.096;124.322;1526;2021-02-12 15:49:33:559
-0.94092;9.60075;-0.35674;-0.83586;9.75418;-0.57246;-0.10451;-0.15493;0.22782;-0.09591;1.89124;-0.04581;-9.78;-33.66;-8.58;173.961;-84.07;124.407;1575;2021-02-12 15:49:33:608
-0.93613;9.59835;-0.28012;-0.83586;9.75418;-0.57246;-0.09178;-0.18194;0.26924;-0.09591;1.89124;-0.04581;-9.78;-33.66;-8.58;173.961;-84.07;124.407;1626;2021-02-12 15:49:33:659
-0.93613;9.59835;-0.28012;-0.83252;9.75748;-0.51853;-0.09178;-0.18194;0.26924;-0.09591;1.89124;-0.04581;-9.78;-33.66;-8.58;173.961;-84.07;124.407;1676;2021-02-12 15:49:33:709
-0.92895;9.60554;-0.27294;-0.83252;9.75748;-0.51853;-0.06651;-0.12515;0.22244;-0.15821;2.00058;-0.04887;-6.78;-32.88;-12.3;157.329;-84.26;121.917;1726;2021-02-12 15:49:33:759
-0.92895;9.60554;-0.27294;-0.82945;9.76107;-0.45159;-0.06651;-0.12515;0.22244;-0.15821;2.00058;-0.04887;-6.78;-32.88;-12.3;157.329;-84.26;121.917;1775;2021-02-12 15:49:33:808
-0.90022;9.63187;-0.23463;-0.82945;9.76107;-0.45159;-0.03871;-0.11919;0.17992;-0.21258;2.10382;-0.07514;-3.78;-33.6;-14.58;141.007;-84.474;118.566;1826;2021-02-12 15:49:33:859
-0.90022;9.63187;-0.23463;-0.83636;9.76378;-0.3736;-0.03871;-0.11919;0.17992;-0.21258;2.10382;-0.07514;-3.78;-33.6;-14.58;141.007;-84.474;118.566;1876;2021-02-12 15:49:33:909
-0.87149;9.64145;-0.19632;-0.83636;9.76378;-0.3736;-0.01894;-0.06996;0.14179;-0.2303;2.18018;-0.10934;-3.78;-33.6;-14.58;141.007;-84.474;118.566;1926;2021-02-12 15:49:33:959
-0.87149;9.64145;-0.19632;-0.86392;9.76348;-0.31402;-0.01894;-0.06996;0.14179;-0.2303;2.18018;-0.10934;0.6;-33.3;-16.02;120.002;-84.64;114.07;1975;2021-02-12 15:49:34:008
-0.84755;9.70849;-0.16281;-0.86392;9.76348;-0.31402;0.03962;-0.05089;0.11707;-0.2303;2.18018;-0.10934;0.6;-33.3;-16.02;120.002;-84.64;114.07;2025;2021-02-12 15:49:34:058
-0.85473;9.71567;-0.15562;-0.90332;9.76136;-0.26496;0.03962;-0.05089;0.11707;-0.21991;2.23149;-0.13317;4.98;-32.7;-17.04;103.349;-84.622;109.975;2076;2021-02-12 15:49:34:109
-0.85473;9.71567;-0.15562;-0.90332;9.76136;-0.26496;0.1029;-0.05532;0.0921;-0.21991;2.23149;-0.13317;4.98;-32.7;-17.04;103.349;-84.622;109.975;2126;2021-02-12 15:49:34:159
-0.84036;9.70609;-0.14605;-0.93361;9.75927;-0.23548;0.1029;-0.05532;0.0921;-0.18998;2.24188;-0.12706;10.32;-31.62;-16.74;82.863;-84.365;104.156;2175;2021-02-12 15:49:34:208
-0.84036;9.70609;-0.14605;-0.93361;9.75927;-0.23548;0.12505;-0.078;0.05356;-0.18998;2.24188;-0.12706;10.32;-31.62;-16.74;82.863;-84.365;104.156;2225;2021-02-12 15:49:34:258
-0.826;9.67018;-0.2059;-0.95097;9.75735;-0.24519;0.12505;-0.078;0.05356;-0.18998;2.24188;-0.12706;10.32;-31.62;-16.74;82.863;-84.365;104.156;2276;2021-02-12 15:49:34:309
-0.826;9.67018;-0.2059;-0.95097;9.75735;-0.24519;0.11107;-0.08303;0.03431;-0.16249;2.21866;-0.09041;15.42;-31.08;-14.82;67.357;-84.253;104.458;2326;2021-02-12 15:49:34:359
-0.84036;9.64624;-0.25857;-0.93287;9.75843;-0.27065;0.11107;-0.08303;0.03431;-0.16249;2.21866;-0.09041;15.42;-31.08;-14.82;67.357;-84.253;104.458;2375;2021-02-12 15:49:34:408
-0.84036;9.64624;-0.25857;-0.93287;9.75843;-0.27065;0.1072;-0.13745;-0.01949;-0.15211;2.16063;-0.0336;18.24;-31.38;-11.46;54.576;-84.316;106.179;2426;2021-02-12 15:49:34:459
-0.82361;9.61751;-0.27773;-0.89435;9.76106;-0.30363;0.1072;-0.13745;-0.01949;-0.15211;2.16063;-0.0336;18.24;-31.38;-11.46;54.576;-84.316;106.179;2476;2021-02-12 15:49:34:509
-0.82361;9.61751;-0.27773;-0.89435;9.76106;-0.30363;0.08256;-0.15271;0.00781;-0.16493;2.07572;0.01222;18.24;-31.38;-11.46;54.576;-84.316;106.179;2526;2021-02-12 15:49:34:559
-0.7829;9.64145;-0.34716;-0.83512;9.7657;-0.32269;0.08256;-0.15271;0.00781;-0.16493;2.07572;0.01222;21.06;-30.9;-7.44;42.566;-84.473;108.752;2575;2021-02-12 15:49:34:608
-0.7829;9.64145;-0.34716;-0.83512;9.7657;-0.32269;-0.00252;-0.11905;-0.04254;-0.16493;2.07572;0.01222;21.06;-30.9;-7.44;42.566;-84.473;108.752;2626;2021-02-12 15:49:34:659
-0.78051;9.63666;-0.39265;-0.74847;9.77296;-0.31537;-0.00252;-0.11905;-0.04254;-0.17654;1.98165;0.02688;22.62;-30.48;-3.06;32.287;-84.762;111.127;2676;2021-02-12 15:49:34:709
-0.78051;9.63666;-0.39265;-0.74847;9.77296;-0.31537;-0.06548;-0.1497;-0.10858;-0.17654;1.98165;0.02688;22.62;-30.48;-3.06;32.287;-84.762;111.127;2726;2021-02-12 15:49:34:759
-0.75417;9.65821;-0.39983;-0.68021;9.77871;-0.2907;-0.06548;-0.1497;-0.10858;-0.18082;1.86253;0.01588;22.98;-30.48;1.14;22.903;-85.674;113.141;2777;2021-02-12 15:49:34:810
-0.75417;9.65821;-0.39983;-0.68021;9.77871;-0.2907;-0.08229;-0.11524;-0.13361;-0.18082;1.86253;0.01588;22.98;-30.48;1.14;22.903;-85.674;113.141;2825;2021-02-12 15:49:34:858
-0.73502;9.65103;-0.43574;-0.64987;9.78124;-0.27475;-0.08229;-0.11524;-0.13361;-0.18082;1.86253;0.01588;22.98;-30.48;1.14;22.903;-85.674;113.141;2876;2021-02-12 15:49:34:909
-0.73502;9.65103;-0.43574;-0.64987;9.78124;-0.27475;-0.07654;-0.10389;-0.15445;-0.15638;1.72753;-0.01527;22.56;-30.36;5.52;9.147;-85.874;112.917;2926;2021-02-12 15:49:34:959
-0.75178;9.67976;-0.42617;-0.65303;9.78083;-0.2818;-0.07654;-0.10389;-0.15445;-0.15638;1.72753;-0.01527;22.56;-30.36;5.52;9.147;-85.874;112.917;2976;2021-02-12 15:49:35:009
-0.72784;9.69652;-0.47166;-0.65303;9.78083;-0.2818;-0.06414;-0.08305;-0.17155;-0.11179;1.59253;-0.04459;21.84;-30.72;8.04;3.725;-85.841;113.341;3025;2021-02-12 15:49:35:058
-0.72784;9.69652;-0.47166;-0.66782;9.77902;-0.30849;-0.06414;-0.08305;-0.17155;-0.11179;1.59253;-0.04459;21.84;-30.72;8.04;3.725;-85.841;113.341;3076;2021-02-12 15:49:35:109
-0.77572;9.70609;-0.50996;-0.66782;9.77902;-0.30849;-0.08924;-0.07003;-0.15412;-0.0562;1.43309;-0.05986;20.52;-30.06;11.58;354.525;-85.698;114.794;3126;2021-02-12 15:49:35:159
-0.77572;9.70609;-0.50996;-0.6944;9.77444;-0.38543;-0.08924;-0.07003;-0.15412;-0.0562;1.43309;-0.05986;20.52;-30.06;11.58;354.525;-85.698;114.794;3176;2021-02-12 15:49:35:209
-0.7446;9.66779;-0.54827;-0.6944;9.77444;-0.38543;-0.04203;-0.10431;-0.12064;-0.0562;1.43309;-0.05986;20.52;-30.06;11.58;354.525;-85.698;114.794;3226;2021-02-12 15:49:35:259
-0.7446;9.66779;-0.54827;-0.70582;9.77016;-0.46506;-0.04203;-0.10431;-0.12064;-0.00977;1.26693;-0.05498;18.72;-30.12;13.44;354.001;-85.355;119.032;3276;2021-02-12 15:49:35:309
-0.77572;9.6223;-0.59616;-0.70582;9.77016;-0.46506;-0.07033;-0.14497;-0.07337;-0.00977;1.26693;-0.05498;18.72;-30.12;13.44;354.001;-85.355;119.032;3326;2021-02-12 15:49:35:359
-0.77572;9.6223;-0.59616;-0.70158;9.76548;-0.56002;-0.07033;-0.14497;-0.07337;0.011;1.10261;-0.03971;16.26;-30.18;16.26;352.682;-84.748;128.598;3376;2021-02-12 15:49:35:409
-0.76854;9.60554;-0.65841;-0.70158;9.76548;-0.56002;-0.07736;-0.15748;-0.04508;0.011;1.10261;-0.03971;16.26;-30.18;16.26;352.682;-84.748;128.598;3426;2021-02-12 15:49:35:459
-0.76854;9.60554;-0.65841;-0.68234;9.76163;-0.64454;-0.07736;-0.15748;-0.04508;0.011;1.10261;-0.03971;16.26;-30.18;16.26;352.682;-84.748;128.598;3475;2021-02-12 15:49:35:508
-0.77572;9.59357;-0.7039;-0.68234;9.76163;-0.64454;-0.09221;-0.16179;-0.03118;0.00183;0.91874;-0.01833;15.06;-29.94;17.4;354.007;-84.508;133.368;3525;2021-02-12 15:49:35:558
-0.77572;9.59357;-0.7039;-0.66617;9.75944;-0.69276;-0.09221;-0.16179;-0.03118;0.00183;0.91874;-0.01833;15.06;-29.94;17.4;354.007;-84.508;133.368;3575;2021-02-12 15:49:35:608
-0.76614;9.60314;-0.73023;-0.66617;9.75944;-0.69276;-0.09824;-0.18908;-0.01483;-0.0281;0.74464;-0.00428;13.56;-29.76;18.84;351.397;-84.376;136.121;3626;2021-02-12 15:49:35:659
-0.76614;9.60314;-0.73023;-0.65115;9.75902;-0.71272;-0.09824;-0.18908;-0.01483;-0.0281;0.74464;-0.00428;13.56;-29.76;18.84;351.397;-84.376;136.121;3676;2021-02-12 15:49:35:709
-0.76375;9.60075;-0.74699;-0.65115;9.75902;-0.71272;-0.1156;-0.1922;-0.01326;-0.06658;0.55528;0.00489;11.88;-29.82;19.74;346.834;-84.351;137.585;3726;2021-02-12 15:49:35:759
-0.76375;9.60075;-0.74699;-0.64287;9.76047;-0.70029;-0.1156;-0.1922;-0.01326;-0.06658;0.55528;0.00489;11.88;-29.82;19.74;346.834;-84.351;137.585;3775;2021-02-12 15:49:35:808
-0.77572;9.58878;-0.73981;-0.64287;9.76047;-0.70029;-0.12652;-0.18066;-0.0187;-0.06658;0.55528;0.00489;11.88;-29.82;19.74;346.834;-84.351;137.585;3825;2021-02-12 15:49:35:858
-0.77572;9.58878;-0.73981;-0.64005;9.76362;-0.65766;-0.12652;-0.18066;-0.0187;-0.09468;0.36774;0.011;11.82;-29.64;20.88;345.388;-84.437;137.448;3876;2021-02-12 15:49:35:909
-0.77572;9.60075;-0.69192;-0.64005;9.76362;-0.65766;-0.1263;-0.16377;-0.02852;-0.09468;0.36774;0.011;11.82;-29.64;20.88;345.388;-84.437;137.448;3926;2021-02-12 15:49:35:959
-0.77572;9.60075;-0.69192;-0.64817;9.76608;-0.61158;-0.1263;-0.16377;-0.02852;-0.09896;0.19731;0.01772;10.92;-30.3;20.7;338.482;-84.786;133.336;3975;2021-02-12 15:49:36:008
-0.80206;9.60793;-0.69671;-0.64817;9.76608;-0.61158;-0.13104;-0.13583;-0.08025;-0.09896;0.19731;0.01772;10.92;-30.3;20.7;338.482;-84.786;133.336;4026;2021-02-12 15:49:36:059
-0.80206;9.60793;-0.69671;-0.66442;9.76724;-0.57442;-0.13104;-0.13583;-0.08025;-0.09896;0.19731;0.01772;10.92;-30.3;20.7;338.482;-84.786;133.336;4076;2021-02-12 15:49:36:109
-0.79248;9.63427;-0.64404;-0.66442;9.76724;-0.57442;-0.13745;-0.10536;-0.10223;-0.07819;0.02016;0.02993;10.8;-30.6;19.86;336.827;-84.862;130.845;4126;2021-02-12 15:49:36:159
-0.79248;9.63427;-0.64404;-0.67218;9.76877;-0.53832;-0.13745;-0.10536;-0.10223;-0.07819;0.02016;0.02993;10.8;-30.6;19.86;336.827;-84.862;130.845;4176;2021-02-12 15:49:36:209
-0.78769;9.663;-0.62728;-0.67218;9.76877;-0.53832;-0.12378;-0.09888;-0.10318;-0.0281;-0.14722;0.04581;10.44;-30.84;19.38;333.064;-84.962;128.69;4225;2021-02-12 15:49:36:258
-0.78769;9.663;-0.62728;-0.68018;9.76829;-0.53683;-0.12378;-0.09888;-0.10318;-0.0281;-0.14722;0.04581;10.44;-30.84;19.38;333.064;-84.962;128.69;4276;2021-02-12 15:49:36:309
-0.80685;9.65582;-0.61292;-0.68018;9.76829;-0.53683;-0.10401;-0.09249;-0.0846;0.03176;-0.29322;0.05742;11.4;-30.12;19.14;335.381;-84.931;128.282;4325;2021-02-12 15:49:36:358
-0.79727;9.65103;-0.61292;-0.68249;9.7672;-0.55359;-0.10401;-0.09249;-0.0846;0.03176;-0.29322;0.05742;11.4;-30.12;19.14;335.381;-84.931;128.282;4376;2021-02-12 15:49:36:409
-0.79727;9.65103;-0.61292;-0.68249;9.7672;-0.55359;-0.13127;-0.12122;-0.04238;0.03176;-0.29322;0.05742;11.4;-30.12;19.14;335.381;-84.931;128.282;4426;2021-02-12 15:49:36:459
-0.81403;9.67736;-0.61531;-0.68098;9.76445;-0.60179;-0.13127;-0.12122;-0.04238;0.09224;-0.43921;0.06475;12.12;-30.3;18.9;341.407;-84.683;131.467;4475;2021-02-12 15:49:36:508
-0.81403;9.67736;-0.61531;-0.68098;9.76445;-0.60179;-0.13282;-0.08206;0.00318;0.09224;-0.43921;0.06475;12.12;-30.3;18.9;341.407;-84.683;131.467;4526;2021-02-12 15:49:36:559
-0.81163;9.62469;-0.62489;-0.68811;9.7607;-0.6524;-0.13282;-0.08206;0.00318;0.1405;-0.57727;0.06353;13.2;-30.36;18.78;346.05;-84.451;133.474;4575;2021-02-12 15:49:36:608
-0.81163;9.62469;-0.62489;-0.68811;9.7607;-0.6524;-0.11914;-0.1088;0.04397;0.1405;-0.57727;0.06353;13.2;-30.36;18.78;346.05;-84.451;133.474;4626;2021-02-12 15:49:36:659
-0.826;9.63187;-0.62728;-0.70427;9.7572;-0.68657;-0.11914;-0.1088;0.04397;0.1405;-0.57727;0.06353;13.2;-30.36;18.78;346.05;-84.451;133.474;4676;2021-02-12 15:49:36:709
-0.826;9.63187;-0.62728;-0.70427;9.7572;-0.68657;-0.0986;-0.13518;0.07652;0.15516;-0.69394;0.06048;13.92;-30.0;18.42;350.906;-84.244;134.271;4726;2021-02-12 15:49:36:759
-0.82121;9.59357;-0.63686;-0.72205;9.75122;-0.75014;-0.0986;-0.13518;0.07652;0.15516;-0.69394;0.06048;13.92;-30.0;18.42;350.906;-84.244;134.271;4776;2021-02-12 15:49:36:809
-0.82121;9.59357;-0.63686;-0.72205;9.75122;-0.75014;-0.09668;-0.15368;0.11917;0.146;-0.81062;0.06231;15.24;-30.48;16.98;357.092;-83.905;136.093;4825;2021-02-12 15:49:36:858
-0.83797;9.59117;-0.65841;-0.74563;9.74732;-0.77728;-0.09668;-0.15368;0.11917;0.146;-0.81062;0.06231;15.24;-30.48;16.98;357.092;-83.905;136.093;4875;2021-02-12 15:49:36:908
-0.83797;9.59117;-0.65841;-0.74563;9.74732;-0.77728;-0.07305;-0.13376;0.162;0.10873;-0.91385;0.07636;16.74;-29.7;16.8;1.389;-83.694;136.191;4925;2021-02-12 15:49:36:958
-0.8667;9.56005;-0.65601;-0.76881;9.74372;-0.7995;-0.07305;-0.13376;0.162;0.10873;-0.91385;0.07636;16.74;-29.7;16.8;1.389;-83.694;136.191;4975;2021-02-12 15:49:37:008
-0.8667;9.56005;-0.65601;-0.76881;9.74372;-0.7995;-0.08411;-0.14067;0.14324;0.10873;-0.91385;0.07636;16.74;-29.7;16.8;1.389;-83.694;136.191;5025;2021-02-12 15:49:37:058
-0.84755;9.58638;-0.63446;-0.78127;9.74416;-0.78188;-0.08411;-0.14067;0.14324;0.07391;-0.99571;0.10201;19.02;-29.22;14.76;7.836;-83.528;135.022;5075;2021-02-12 15:49:37:108
-0.84755;9.58638;-0.63446;-0.78127;9.74416;-0.78188;-0.07757;-0.13956;0.09484;0.07391;-0.99571;0.10201;19.02;-29.22;14.76;7.836;-83.528;135.022;5126;2021-02-12 15:49:37:159
-0.85473;9.61751;-0.58897;-0.77061;9.74864;-0.73527;-0.07757;-0.13956;0.09484;0.04093;-1.06779;0.135;20.7;-29.1;12.96;13.706;-83.765;133.655;5176;2021-02-12 15:49:37:209
-0.85473;9.61751;-0.58897;-0.77061;9.74864;-0.73527;-0.11594;-0.11707;0.07711;0.04093;-1.06779;0.135;20.7;-29.1;12.96;13.706;-83.765;133.655;5226;2021-02-12 15:49:37:259
-0.87628;9.64384;-0.55306;-0.7596;9.75498;-0.65863;-0.11594;-0.11707;0.07711;0.04093;-1.06779;0.135;20.7;-29.1;12.96;13.706;-83.765;133.655;5276;2021-02-12 15:49:37:309
-0.87628;9.64384;-0.55306;-0.7596;9.75498;-0.65863;-0.10869;-0.08648;0.06867;0.03482;-1.12277;0.1631;21.66;-29.46;9.36;21.399;-84.116;130.928;5326;2021-02-12 15:49:37:359
-0.84755;9.64384;-0.5387;-0.74047;9.76027;-0.5993;-0.10869;-0.08648;0.06867;0.03482;-1.12277;0.1631;21.66;-29.46;9.36;21.399;-84.116;130.928;5376;2021-02-12 15:49:37:409
-0.84755;9.64384;-0.5387;-0.74047;9.76027;-0.5993;-0.1221;-0.11338;0.03802;0.04643;-1.15576;0.17043;22.02;-29.46;7.08;24.319;-84.426;128.985;5426;2021-02-12 15:49:37:459
-0.85952;9.67258;-0.54348;-0.71409;9.76513;-0.55028;-0.1221;-0.11338;0.03802;0.04643;-1.15576;0.17043;22.02;-29.46;7.08;24.319;-84.426;128.985;5476;2021-02-12 15:49:37:509
-0.85952;9.67258;-0.54348;-0.71409;9.76513;-0.55028;-0.1531;-0.08914;-0.00639;0.07269;-1.17347;0.14966;21.66;-29.94;4.86;28.234;-84.725;127.618;5526;2021-02-12 15:49:37:559
-0.85712;9.6606;-0.50518;-0.70966;9.76657;-0.52993;-0.1531;-0.08914;-0.00639;0.07269;-1.17347;0.14966;21.66;-29.94;4.86;28.234;-84.725;127.618;5576;2021-02-12 15:49:37:609
-0.85712;9.6606;-0.50518;-0.70966;9.76657;-0.52993;-0.12534;-0.12817;-0.00151;0.07269;-1.17347;0.14966;21.66;-29.94;4.86;28.234;-84.725;127.618;5625;2021-02-12 15:49:37:658
-0.85234;9.62948;-0.50996;-0.73862;9.7647;-0.52491;-0.12534;-0.12817;-0.00151;0.0898;-1.1692;0.10507;21.96;-30.36;1.8;34.39;-84.698;125.4;5675;2021-02-12 15:49:37:708
-0.85234;9.62948;-0.50996;-0.73862;9.7647;-0.52491;-0.10438;-0.10967;0.03217;0.0898;-1.1692;0.10507;21.96;-30.36;1.8;34.39;-84.698;125.4;5726;2021-02-12 15:49:37:759
-0.8691;9.63666;-0.50039;-0.76398;9.76256;-0.5283;-0.10438;-0.10967;0.03217;0.09835;-1.14415;0.05864;22.32;-30.9;-1.14;42.582;-84.565;124.664;5776;2021-02-12 15:49:37:809
-0.8691;9.63666;-0.50039;-0.76398;9.76256;-0.5283;-0.08694;-0.12516;-0.0054;0.09835;-1.14415;0.05864;22.32;-30.9;-1.14;42.582;-84.565;124.664;5826;2021-02-12 15:49:37:859
-0.9098;9.6199;-0.51715;-0.80732;9.75894;-0.53076;-0.08694;-0.12516;-0.0054;0.09163;-1.09406;0.01649;22.32;-30.9;-1.14;42.582;-84.565;124.664;5876;2021-02-12 15:49:37:909
-0.9098;9.6199;-0.51715;-0.80732;9.75894;-0.53076;-0.08348;-0.15495;-0.01253;0.09163;-1.09406;0.01649;20.82;-31.38;-3.42;47.723;-84.346;123.322;5928;2021-02-12 15:49:37:961
-0.92895;9.60075;-0.54109;-0.85673;9.75477;-0.52999;-0.08348;-0.15495;-0.01253;0.09163;-1.09406;0.01649;20.82;-31.38;-3.42;47.723;-84.346;123.322;5975;2021-02-12 15:49:38:008
-0.95289;9.60554;-0.56503;-0.85673;9.75477;-0.52999;-0.05988;-0.14632;-0.04141;0.07514;-1.0232;0.00183;20.4;-31.2;-7.14;58.563;-84.104;121.742;6025;2021-02-12 15:49:38:058
-0.95289;9.60554;-0.56503;-0.90429;9.75101;-0.51999;-0.05988;-0.14632;-0.04141;0.07514;-1.0232;0.00183;20.4;-31.2;-7.14;58.563;-84.104;121.742;6076;2021-02-12 15:49:38:109
-0.98881;9.6199;-0.49321;-0.90429;9.75101;-0.51999;-0.05457;-0.12896;0.014;0.05925;-0.94073;0.01405;18.72;-31.98;-7.74;61.229;-83.894;119.9;6126;2021-02-12 15:49:38:159
-0.98881;9.6199;-0.49321;-0.94159;9.74845;-0.50145;-0.05457;-0.12896;0.014;0.05925;-0.94073;0.01405;18.72;-31.98;-7.74;61.229;-83.894;119.9;6176;2021-02-12 15:49:38:209
-1.00317;9.63666;-0.50278;-0.94159;9.74845;-0.50145;-0.04674;-0.11135;-0.0213;0.05925;-0.94073;0.01405;18.72;-31.98;-7.74;61.229;-83.894;119.9;6225;2021-02-12 15:49:38:258
-1.00317;9.63666;-0.50278;-0.95715;9.74792;-0.48212;-0.04674;-0.11135;-0.0213;0.05925;-0.83689;0.04948;18.6;-31.38;-11.4;65.016;-83.726;116.735;6275;2021-02-12 15:49:38:308
-1.00078;9.6199;-0.52194;-0.95715;9.74792;-0.48212;-0.05386;-0.12954;-0.05071;0.05925;-0.83689;0.04948;18.6;-31.38;-11.4;65.016;-83.726;116.735;6326;2021-02-12 15:49:38:359
-1.00078;9.6199;-0.52194;-0.94062;9.75008;-0.47074;-0.05386;-0.12954;-0.05071;0.06964;-0.72021;0.09224;18.18;-31.44;-13.26;70.694;-83.843;116.586;6376;2021-02-12 15:49:38:409
-1.01275;9.63666;-0.53151;-0.94062;9.75008;-0.47074;-0.09669;-0.11529;-0.0513;0.06964;-0.72021;0.09224;18.18;-31.44;-13.26;70.694;-83.843;116.586;6426;2021-02-12 15:49:38:459
-1.01275;9.63666;-0.53151;-0.90613;9.75266;-0.48465;-0.09669;-0.11529;-0.0513;0.08247;-0.60353;0.12156;18.18;-31.44;-13.26;70.694;-83.843;116.586;6475;2021-02-12 15:49:38:508
-0.99838;9.61751;-0.54588;-0.90613;9.75266;-0.48465;-0.13361;-0.13746;-0.0328;0.08247;-0.60353;0.12156;16.08;-31.56;-13.62;78.322;-83.985;118.14;6526;2021-02-12 15:49:38:559
-0.99838;9.61751;-0.54588;-0.85383;9.75546;-0.52196;-0.13361;-0.13746;-0.0328;0.08247;-0.60353;0.12156;16.08;-31.56;-13.62;78.322;-83.985;118.14;6577;2021-02-12 15:49:38:610
-0.98402;9.6223;-0.56982;-0.85383;9.75546;-0.52196;-0.1552;-0.13343;-0.01369;0.0898;-0.46853;0.13317;13.98;-31.38;-14.46;85.676;-84.143;121.438;6626;2021-02-12 15:49:38:659
-0.98402;9.6223;-0.56982;-0.82005;9.75585;-0.56686;-0.1552;-0.13343;-0.01369;0.0898;-0.46853;0.13317;13.98;-31.38;-14.46;85.676;-84.143;121.438;6675;2021-02-12 15:49:38:708
-0.9912;9.59596;-0.61292;-0.82005;9.75585;-0.56686;-0.18628;-0.15905;-0.01095;0.08369;-0.32926;0.11973;12.54;-31.62;-15.3;93.19;-84.165;124.654;6726;2021-02-12 15:49:38:759
-0.9912;9.59596;-0.61292;-0.79909;9.75482;-0.61273;-0.18628;-0.15905;-0.01095;0.08369;-0.32926;0.11973;12.54;-31.62;-15.3;93.19;-84.165;124.654;6775;2021-02-12 15:49:38:808
-0.98402;9.61033;-0.65122;-0.79909;9.75482;-0.61273;-0.18473;-0.14264;-0.00998;0.08369;-0.32926;0.11973;12.54;-31.62;-15.3;93.19;-84.165;124.654;6825;2021-02-12 15:49:38:858
-0.98402;9.61033;-0.65122;-0.7959;9.7527;-0.64949;-0.18473;-0.14264;-0.00998;0.05925;-0.1967;0.08919;11.52;-32.58;-16.2;102.064;-83.987;129.216;6876;2021-02-12 15:49:38:909
-0.96007;9.59357;-0.65362;-0.7959;9.7527;-0.64949;-0.1688;-0.15788;0.01985;0.05925;-0.1967;0.08919;11.52;-32.58;-16.2;102.064;-83.987;129.216;6926;2021-02-12 15:49:38:959
-0.96007;9.59357;-0.65362;-0.80113;9.75073;-0.67216;-0.1688;-0.15788;0.01985;0.01955;-0.05253;0.0452;11.76;-32.52;-15.9;102.982;-83.878;129.997;6975;2021-02-12 15:49:39:008
-0.96486;9.59835;-0.64404;-0.80113;9.75073;-0.67216;-0.14858;-0.15086;0.03186;0.01955;-0.05253;0.0452;11.76;-32.52;-15.9;102.982;-83.878;129.997;7026;2021-02-12 15:49:39:059
-0.96486;9.59835;-0.64404;-0.82018;9.74894;-0.67518;-0.14858;-0.15086;0.03186;-0.02321;0.09163;0.00122;11.76;-32.52;-15.9;102.982;-83.878;129.997;7076;2021-02-12 15:49:39:109
-0.97205;9.60075;-0.64883;-0.82018;9.74894;-0.67518;-0.13121;-0.14689;0.01976;-0.02321;0.09163;0.00122;10.32;-33.06;-15.24;106.688;-83.781;129.461;7125;2021-02-12 15:49:39:158
-0.97205;9.60075;-0.64883;-0.84691;9.74744;-0.66379;-0.13121;-0.14689;0.01976;-0.02321;0.09163;0.00122;10.32;-33.06;-15.24;106.688;-83.781;129.461;7175;2021-02-12 15:49:39:208
-0.97444;9.61511;-0.62968;-0.84691;9.74744;-0.66379;-0.10319;-0.13104;0.02128;-0.0562;0.22174;-0.02993;9.78;-32.52;-15.36;105.531;-83.7;128.089;7226;2021-02-12 15:49:39:259
-0.97444;9.61511;-0.62968;-0.87822;9.74599;-0.64399;-0.10319;-0.13104;0.02128;-0.0562;0.22174;-0.02993;9.78;-32.52;-15.36;105.531;-83.7;128.089;7276;2021-02-12 15:49:39:309
-0.97923;9.61511;-0.65122;-0.87822;9.74599;-0.64399;-0.08082;-0.13002;-0.02219;-0.07269;0.35552;-0.04459;10.86;-32.52;-15.9;102.357;-83.624;126.252;7326;2021-02-12 15:49:39:359
-0.97923;9.61511;-0.65122;-0.90507;9.74496;-0.62205;-0.08082;-0.13002;-0.02219;-0.07269;0.35552;-0.04459;10.86;-32.52;-15.9;102.357;-83.624;126.252;7376;2021-02-12 15:49:39:409
-1.01035;9.60793;-0.62968;-0.90507;9.74496;-0.62205;-0.08278;-0.1366;-0.03456;-0.07269;0.35552;-0.04459;10.86;-32.52;-15.9;102.357;-83.624;126.252;7426;2021-02-12 15:49:39:459
-1.01035;9.60793;-0.62968;-0.93182;9.74445;-0.58983;-0.08278;-0.1366;-0.03456;-0.07575;0.47892;-0.03787;11.4;-32.82;-15.96;98.728;-83.543;122.334;7476;2021-02-12 15:49:39:509
-1.00078;9.65582;-0.58658;-0.93182;9.74445;-0.58983;-0.06156;-0.08829;-0.00281;-0.07575;0.47892;-0.03787;11.4;-32.82;-15.96;98.728;-83.543;122.334;7526;2021-02-12 15:49:39:559
-1.00078;9.65582;-0.58658;-0.94542;9.74371;-0.58031;-0.06156;-0.08829;-0.00281;-0.06475;0.58093;-0.05131;12.0;-32.1;-16.02;95.093;-83.505;121.542;7576;2021-02-12 15:49:39:609
-0.99359;9.63187;-0.57461;-0.94542;9.74371;-0.58031;-0.03494;-0.11071;0.00287;-0.06475;0.58093;-0.05131;12.0;-32.1;-16.02;95.093;-83.505;121.542;7626;2021-02-12 15:49:39:659
-0.99359;9.63187;-0.57461;-0.95935;9.74249;-0.5778;-0.03494;-0.11071;0.00287;-0.06475;0.58093;-0.05131;12.54;-32.22;-15.3;90.818;-83.443;121.06;7675;2021-02-12 15:49:39:708
-0.98162;9.63427;-0.58419;-0.95935;9.74249;-0.5778;-0.03684;-0.10878;0.0081;-0.04459;0.68661;-0.00916;12.54;-32.22;-15.3;90.818;-83.443;121.06;7726;2021-02-12 15:49:39:759
-0.98162;9.63427;-0.58419;-0.93819;9.74335;-0.5977;-0.03684;-0.10878;0.0081;-0.04459;0.68661;-0.00916;12.54;-32.22;-15.3;90.818;-83.443;121.06;7776;2021-02-12 15:49:39:809
-0.9505;9.6223;-0.59137;-0.93819;9.74335;-0.5977;-0.05031;-0.12303;0.03214;-0.02993;0.75992;0.02382;14.58;-32.28;-14.52;87.424;-83.487;122.5;7826;2021-02-12 15:49:39:859
-0.9505;9.6223;-0.59137;-0.8881;9.74597;-0.63062;-0.05031;-0.12303;0.03214;-0.02993;0.75992;0.02382;14.58;-32.28;-14.52;87.424;-83.487;122.5;7875;2021-02-12 15:49:39:908
-0.93134;9.61033;-0.60334;-0.8881;9.74597;-0.63062;-0.08276;-0.13761;0.05092;-0.02993;0.75992;0.02382;15.96;-31.44;-14.58;87.626;-83.623;125.378;7926;2021-02-12 15:49:39:959
-0.93134;9.61033;-0.60334;-0.83926;9.74847;-0.65832;-0.08276;-0.13761;0.05092;-0.02688;0.81001;0.0391;15.96;-31.44;-14.58;87.626;-83.623;125.378;7975;2021-02-12 15:49:40:008
-0.91219;9.61033;-0.60334;-0.83926;9.74847;-0.65832;-0.08613;-0.11595;0.0886;-0.02688;0.81001;0.0391;15.96;-31.44;-14.58;87.626;-83.623;125.378;8029;2021-02-12 15:49:40:062
-0.91219;9.61033;-0.60334;-0.79919;9.75071;-0.67482;-0.08613;-0.11595;0.0886;-0.03176;0.84727;0.03238;17.22;-31.08;-13.2;86.525;-83.877;130.177;8076;2021-02-12 15:49:40:109
-0.88107;9.63187;-0.59376;-0.79919;9.75071;-0.67482;-0.08511;-0.12947;0.05719;-0.03176;0.84727;0.03238;17.22;-31.08;-13.2;86.525;-83.877;130.177;8126;2021-02-12 15:49:40:159
-0.88107;9.63187;-0.59376;-0.77804;9.75209;-0.6795;-0.08511;-0.12947;0.05719;-0.04459;0.86621;6.1E-4;17.22;-31.74;-11.28;83.649;-83.954;131.132;8176;2021-02-12 15:49:40:209
-0.85234;9.61511;-0.62489;-0.76621;9.75299;-0.68008;-0.10049;-0.1283;0.02886;-0.04459;0.86621;6.1E-4;17.22;-31.74;-11.28;83.649;-83.954;131.132;8226;2021-02-12 15:49:40:259
-0.85234;9.61511;-0.62489;-0.76621;9.75299;-0.68008;-0.10049;-0.1283;0.02886;-0.04459;0.86621;6.1E-4;18.48;-31.32;-10.44;79.651;-84.003;131.592;8276;2021-02-12 15:49:40:309
-0.83797;9.62948;-0.66319;-0.76974;9.75273;-0.67979;-0.10049;-0.1283;0.02886;-0.04948;0.86926;-0.04154;18.48;-31.32;-10.44;79.651;-84.003;131.592;8326;2021-02-12 15:49:40:359
-0.83797;9.62948;-0.66319;-0.76974;9.75273;-0.67979;-0.05896;-0.10393;0.08099;-0.04948;0.86926;-0.04154;18.48;-31.32;-10.44;79.651;-84.003;131.592;8376;2021-02-12 15:49:40:409
-0.84036;9.6223;-0.60573;-0.79563;9.75075;-0.67836;-0.05896;-0.10393;0.08099;-0.05681;0.85643;-0.08735;20.04;-31.14;-8.34;71.608;-83.989;131.449;8426;2021-02-12 15:49:40:459
-0.84036;9.6223;-0.60573;-0.79563;9.75075;-0.67836;-0.03496;-0.1141;0.08139;-0.05681;0.85643;-0.08735;20.04;-31.14;-8.34;71.608;-83.989;131.449;8475;2021-02-12 15:49:40:508
-0.84276;9.65821;-0.56024;-0.81925;9.74938;-0.66991;-0.03496;-0.1141;0.08139;-0.05681;0.85643;-0.08735;20.52;-31.68;-7.56;68.505;-83.805;129.273;8525;2021-02-12 15:49:40:558
-0.84276;9.65821;-0.56024;-0.81925;9.74938;-0.66991;-0.01893;-0.13075;0.02296;-0.0507;0.82956;-0.11729;20.52;-31.68;-7.56;68.505;-83.805;129.273;8575;2021-02-12 15:49:40:608
-0.84276;9.64145;-0.58897;-0.87975;9.74353;-0.67823;-0.01893;-0.13075;0.02296;-0.0507;0.82956;-0.11729;20.52;-31.68;-7.56;68.505;-83.805;129.273;8626;2021-02-12 15:49:40:659
-0.84276;9.64145;-0.58897;-0.87975;9.74353;-0.67823;0.05575;-0.10189;0.05001;-0.0507;0.79168;-0.12156;21.72;-31.26;-5.82;60.807;-83.496;127.63;8676;2021-02-12 15:49:40:709
-0.85712;9.61033;-0.67516;-0.92281;9.73872;-0.69007;0.05575;-0.10189;0.05001;-0.0507;0.79168;-0.12156;21.72;-31.26;-5.82;60.807;-83.496;127.63;8725;2021-02-12 15:49:40:758
-0.85712;9.61033;-0.67516;-0.92281;9.73872;-0.69007;0.05887;-0.11792;0.04848;-0.04276;0.74037;-0.10018;21.9;-30.84;-4.8;57.652;-83.252;126.789;8775;2021-02-12 15:49:40:808
-0.87149;9.61272;-0.67038;-0.9495;9.73517;-0.70384;0.05887;-0.11792;0.04848;-0.04276;0.74037;-0.10018;21.9;-30.84;-4.8;57.652;-83.252;126.789;8826;2021-02-12 15:49:40:859
-0.87149;9.61272;-0.67038;-0.9495;9.73517;-0.70384;0.07457;-0.12383;0.03187;-0.04276;0.74037;-0.10018;21.9;-30.84;-4.8;57.652;-83.252;126.789;8875;2021-02-12 15:49:40:908
-0.87628;9.62948;-0.64643;-0.95277;9.73436;-0.71056;0.07457;-0.12383;0.03187;-0.04826;0.67806;-0.05742;22.74;-30.3;-3.78;53.831;-83.078;126.549;8926;2021-02-12 15:49:40:959
-0.87628;9.62948;-0.64643;-0.95277;9.73436;-0.71056;0.06495;-0.13841;0.01872;-0.04826;0.67806;-0.05742;22.74;-30.3;-3.78;53.831;-83.078;126.549;8976;2021-02-12 15:49:41:009
-0.88585;9.60793;-0.7039;-0.94069;9.73518;-0.71533;0.06495;-0.13841;0.01872;-0.05376;0.61514;-0.01222;23.46;-30.42;-2.04;48.72;-83.039;126.715;9025;2021-02-12 15:49:41:058
-0.88585;9.60793;-0.7039;-0.94069;9.73518;-0.71533;0.06306;-0.13592;0.02843;-0.05376;0.61514;-0.01222;23.46;-30.42;-2.04;48.72;-83.039;126.715;9075;2021-02-12 15:49:41:108
-0.86431;9.6199;-0.7039;-0.90464;9.73877;-0.71302;0.06306;-0.13592;0.02843;-0.05376;0.61514;-0.01222;23.88;-30.96;0.0;44.577;-83.255;128.244;9125;2021-02-12 15:49:41:158
-0.86431;9.6199;-0.7039;-0.90464;9.73877;-0.71302;0.01456;-0.11923;0.01328;-0.06475;0.53939;0.02932;23.88;-30.96;0.0;44.577;-83.255;128.244;9176;2021-02-12 15:49:41:209
-0.84755;9.6223;-0.69671;-0.85069;9.74451;-0.70083;0.01456;-0.11923;0.01328;-0.06475;0.53939;0.02932;23.88;-30.96;0.0;44.577;-83.255;128.244;9226;2021-02-12 15:49:41:259
-0.84755;9.6223;-0.69671;-0.85069;9.74451;-0.70083;-0.01537;-0.12549;-0.03143;-0.06292;0.45876;0.04948;22.98;-30.66;0.12;45.934;-83.547;129.483;9275;2021-02-12 15:49:41:308
-0.84515;9.62948;-0.68235;-0.80688;9.74915;-0.68806;-0.01537;-0.12549;-0.03143;-0.06292;0.45876;0.04948;22.98;-30.66;0.12;45.934;-83.547;129.483;9326;2021-02-12 15:49:41:359
-0.84276;9.65103;-0.69192;-0.80688;9.74915;-0.68806;-0.05021;-0.14181;-0.03708;-0.05803;0.38362;0.04765;23.1;-30.3;1.38;43.741;-83.792;130.456;9375;2021-02-12 15:49:41:408
-0.84276;9.65103;-0.69192;-0.75575;9.75445;-0.6708;-0.05021;-0.14181;-0.03708;-0.05803;0.38362;0.04765;23.1;-30.3;1.38;43.741;-83.792;130.456;9426;2021-02-12 15:49:41:459
-0.81642;9.65103;-0.68953;-0.75575;9.75445;-0.6708;-0.07532;-0.10055;0.00133;-0.05803;0.38362;0.04765;22.08;-30.24;2.4;41.928;-84.086;131.592;9476;2021-02-12 15:49:41:509
-0.81642;9.65103;-0.68953;-0.72624;9.75728;-0.66219;-0.07532;-0.10055;0.00133;-0.03604;0.29932;0.02566;22.08;-30.24;2.4;41.928;-84.086;131.592;9525;2021-02-12 15:49:41:558
-0.80206;9.63906;-0.71347;-0.72624;9.75728;-0.66219;-0.08097;-0.11648;-0.01907;-0.03604;0.29932;0.02566;22.08;-30.24;2.4;41.928;-84.086;131.592;9576;2021-02-12 15:49:41:609
-0.80206;9.63906;-0.71347;-0.7175;9.75778;-0.66433;-0.08097;-0.11648;-0.01907;-0.01344;0.21502;-0.00916;22.44;-30.36;2.1;42.607;-84.248;132.359;9625;2021-02-12 15:49:41:658
-0.81163;9.65103;-0.71347;-0.7175;9.75778;-0.66433;-0.06097;-0.12301;-0.01541;-0.01344;0.21502;-0.00916;22.44;-30.36;2.1;42.607;-84.248;132.359;9676;2021-02-12 15:49:41:709
-0.81163;9.65103;-0.71347;-0.73656;9.75551;-0.67668;-0.06097;-0.12301;-0.01541;-0.01344;0.21502;-0.00916;22.26;-30.24;2.58;40.055;-84.146;132.574;9725;2021-02-12 15:49:41:758
-0.81642;9.64863;-0.71108;-0.73656;9.75551;-0.67668;-0.05822;-0.10437;-0.0222;0.06292;-0.39523;-0.02932;22.26;-30.24;2.58;40.055;-84.146;132.574;9775;2021-02-12 15:49:41:808
-0.81642;9.64863;-0.71108;-0.81218;9.74685;-0.71396;-0.05822;-0.10437;-0.0222;0.06292;-0.39523;-0.02932;22.26;-30.24;2.58;40.055;-84.146;132.574;9826;2021-02-12 15:49:41:859
-0.83558;9.63666;-0.71587;-0.81218;9.74685;-0.71396;0.0274;-0.10444;0.00747;0.08369;-0.48136;-0.05192;22.92;-30.3;2.88;39.248;-83.669;131.318;9876;2021-02-12 15:49:41:909
-0.83558;9.63666;-0.71587;-0.87723;9.73905;-0.74276;0.0274;-0.10444;0.00747;0.08369;-0.48136;-0.05192;22.92;-30.3;2.88;39.248;-83.669;131.318;9927;2021-02-12 15:49:41:960
-0.84755;9.64384;-0.73023;-0.87723;9.73905;-0.74276;0.09113;-0.08403;0.05214;0.0898;-0.562;-0.05253;22.5;-30.24;2.88;38.439;-83.269;130.255;9975;2021-02-12 15:49:42:008
-0.84755;9.64384;-0.73023;-0.94373;9.73089;-0.7678;0.09113;-0.08403;0.05214;0.0898;-0.562;-0.05253;22.5;-30.24;2.88;38.439;-83.269;130.255;10026;2021-02-12 15:49:42:059
-0.86191;9.6199;-0.73502;-0.94373;9.73089;-0.7678;0.10353;-0.13168;0.02651;0.0898;-0.562;-0.05253;22.62;-30.6;2.94;37.759;-82.874;129.131;10076;2021-02-12 15:49:42:109
-0.86191;9.6199;-0.73502;-0.98004;9.72655;-0.7773;0.10353;-0.13168;0.02651;0.08369;-0.63286;-0.0336;22.62;-30.6;2.94;37.759;-82.874;129.131;10125;2021-02-12 15:49:42:158
-0.8667;9.60075;-0.76375;-0.98004;9.72655;-0.7773;0.12552;-0.12017;0.05536;0.08369;-0.63286;-0.0336;22.62;-30.6;2.94;37.759;-82.874;129.131;10176;2021-02-12 15:49:42:209
-0.8667;9.60075;-0.76375;-1.01154;9.72327;-0.77797;0.12552;-0.12017;0.05536;0.07269;-0.70127;0.00367;23.52;-30.6;2.46;39.96;-82.672;128.419;10226;2021-02-12 15:49:42:259
-0.87388;9.59596;-0.75178;-1.01154;9.72327;-0.77797;0.13922;-0.10095;0.06685;0.07269;-0.70127;0.00367;23.52;-30.6;2.46;39.96;-82.672;128.419;10275;2021-02-12 15:49:42:308
-0.87388;9.59596;-0.75178;-1.01866;9.72352;-0.76548;0.13922;-0.10095;0.06685;0.07269;-0.70127;0.00367;23.1;-29.94;1.62;38.204;-82.534;126.923;10326;2021-02-12 15:49:42:359
-0.89064;9.60554;-0.71587;-1.01866;9.72352;-0.76548;0.07797;-0.1085;0.03573;0.05803;-0.75869;0.04765;23.1;-29.94;1.62;38.204;-82.534;126.923;10375;2021-02-12 15:49:42:408
-0.89064;9.60554;-0.71587;-0.99499;9.72776;-0.74237;0.07797;-0.1085;0.03573;0.05803;-0.75869;0.04765;23.1;-29.94;1.62;38.204;-82.534;126.923;10426;2021-02-12 15:49:42:459
-0.89304;9.62469;-0.68953;-0.99499;9.72776;-0.74237;0.09184;-0.1277;0.02646;0.0507;-0.79962;0.0843;24.0;-29.76;0.78;40.481;-82.727;126.727;10476;2021-02-12 15:49:42:509
-0.89304;9.62469;-0.68953;-0.95881;9.73341;-0.71545;0.09184;-0.1277;0.02646;0.0507;-0.79962;0.0843;24.0;-29.76;0.78;40.481;-82.727;126.727;10526;2021-02-12 15:49:42:559
-0.89064;9.64145;-0.67277;-0.95881;9.73341;-0.71545;0.03835;-0.11636;0.00895;0.04887;-0.82955;0.10446;22.92;-30.3;-0.42;43.222;-82.993;126.73;10577;2021-02-12 15:49:42:610
-0.88585;9.63666;-0.69432;-0.92037;9.73888;-0.69107;0.03835;-0.11636;0.00895;0.04887;-0.82955;0.10446;22.92;-30.3;-0.42;43.222;-82.993;126.73;10626;2021-02-12 15:49:42:659
-0.88585;9.63666;-0.69432;-0.92037;9.73888;-0.69107;0.01002;-0.12011;0.05642;0.04887;-0.82955;0.10446;22.8;-30.24;0.72;40.302;-83.26;126.902;10675;2021-02-12 15:49:42:708
-0.8667;9.64145;-0.67277;-0.87746;9.74448;-0.66753;0.01002;-0.12011;0.05642;0.0562;-0.84788;0.09896;22.8;-30.24;0.72;40.302;-83.26;126.902;10726;2021-02-12 15:49:42:759
-0.8667;9.64145;-0.67277;-0.87746;9.74448;-0.66753;-0.0402;-0.12639;0.04497;0.0562;-0.84788;0.09896;22.8;-30.24;0.72;40.302;-83.26;126.902;10775;2021-02-12 15:49:42:808
-0.88585;9.64624;-0.63686;-0.83245;9.74983;-0.64663;-0.0402;-0.12639;0.04497;0.0;-0.18509;0.05559;22.02;-30.72;-1.92;49.558;-83.545;127.262;10826;2021-02-12 15:49:42:859
-0.88585;9.64624;-0.63686;-0.83245;9.74983;-0.64663;-0.03791;-0.12507;0.05593;0.0;-0.18509;0.05559;22.02;-30.72;-1.92;49.558;-83.545;127.262;10876;2021-02-12 15:49:42:909
-0.88585;9.64624;-0.63686;-0.84859;9.74906;-0.6372;-0.03791;-0.12507;0.05593;0.0;-0.18509;0.05559;22.02;-31.32;-2.76;51.662;-83.788;126.902;10925;2021-02-12 15:49:42:958
-0.88346;9.65342;-0.6201;-0.84859;9.74906;-0.6372;-0.00967;-0.12927;-0.03647;0.00305;-0.17898;0.01222;22.02;-31.32;-2.76;51.662;-83.788;126.902;10975;2021-02-12 15:49:43:008
-0.88825;9.6223;-0.63446;-0.8574;9.74859;-0.63265;-0.00967;-0.12927;-0.03647;0.00305;-0.17898;0.01222;22.02;-31.32;-2.76;51.662;-83.788;126.902;11025;2021-02-12 15:49:43:058
-0.88825;9.6223;-0.63446;-0.8574;9.74859;-0.63265;-0.01467;-0.12933;-0.02506;0.01038;-0.16371;-0.02932;21.42;-31.02;-3.54;54.794;-83.762;126.423;11075;2021-02-12 15:49:43:108
-0.88346;9.60314;-0.66798;-0.89756;9.74519;-0.62933;-0.01467;-0.12933;-0.02506;0.01038;-0.16371;-0.02932;21.42;-31.02;-3.54;54.794;-83.762;126.423;11126;2021-02-12 15:49:43:159
-0.88346;9.60314;-0.66798;-0.89756;9.74519;-0.62933;-0.01384;-0.10058;-0.00132;0.00855;-0.1405;-0.05864;21.6;-31.02;-4.44;52.617;-83.582;125.036;11176;2021-02-12 15:49:43:209
-0.92656;9.60314;-0.66559;-0.95673;9.73961;-0.62861;-0.01384;-0.10058;-0.00132;0.00855;-0.1405;-0.05864;21.6;-31.02;-4.44;52.617;-83.582;125.036;11225;2021-02-12 15:49:43:258
-0.92656;9.60314;-0.66559;-0.95673;9.73961;-0.62861;0.05698;-0.11367;-0.0275;0.00855;-0.1405;-0.05864;21.24;-31.5;-5.88;57.503;-83.296;123.307;11275;2021-02-12 15:49:43:308
-0.94571;9.6223;-0.62968;-1.01427;9.73369;-0.62998;0.05698;-0.11367;-0.0275;0.0055;-0.10629;-0.06597;21.24;-31.5;-5.88;57.503;-83.296;123.307;11325;2021-02-12 15:49:43:358
-0.94571;9.6223;-0.62968;-1.01427;9.73369;-0.62998;0.07994;-0.12781;-0.04725;0.0055;-0.10629;-0.06597;21.24;-31.5;-5.88;57.503;-83.296;123.307;11376;2021-02-12 15:49:43:409
-0.94332;9.60314;-0.64883;-1.05139;9.72963;-0.63187;0.07994;-0.12781;-0.04725;-0.00244;-0.06597;-0.04704;21.18;-31.5;-5.94;56.298;-83.007;121.845;11426;2021-02-12 15:49:43:459
-0.94332;9.60314;-0.64883;-1.05139;9.72963;-0.63187;0.10999;-0.12764;-0.04899;-0.00244;-0.06597;-0.04704;21.18;-31.5;-5.94;56.298;-83.007;121.845;11475;2021-02-12 15:49:43:508
-0.97205;9.60793;-0.63686;-1.06196;9.72815;-0.63691;0.10999;-0.12764;-0.04899;-0.00428;-0.02321;-0.01405;20.58;-30.36;-6.54;57.988;-82.746;120.953;11525;2021-02-12 15:49:43:558
-0.97205;9.60793;-0.63686;-1.06196;9.72815;-0.63691;0.07599;-0.11819;-0.01737;-0.00428;-0.02321;-0.01405;20.58;-30.36;-6.54;57.988;-82.746;120.953;11576;2021-02-12 15:49:43:609
-0.96965;9.61033;-0.6608;-1.04898;9.72942;-0.63911;0.07599;-0.11819;-0.01737;-0.00428;-0.02321;-0.01405;20.58;-30.36;-6.54;57.988;-82.746;120.953;11626;2021-02-12 15:49:43:659
-0.96965;9.61033;-0.6608;-1.04898;9.72942;-0.63911;0.06465;-0.10191;-0.01046;-0.00611;0.02993;0.02749;21.06;-31.2;-7.2;58.655;-82.804;121.352;11675;2021-02-12 15:49:43:708
-0.96486;9.60554;-0.67038;-1.01196;9.73315;-0.64198;0.06465;-0.10191;-0.01046;-0.00611;0.02993;0.02749;21.06;-31.2;-7.2;58.655;-82.804;121.352;11726;2021-02-12 15:49:43:759
-0.96486;9.60554;-0.67038;-1.01196;9.73315;-0.64198;0.02369;-0.13325;-0.03117;-0.00611;0.08796;0.06109;21.18;-30.78;-7.32;59.546;-82.981;122.391;11776;2021-02-12 15:49:43:809
-0.9481;9.61751;-0.65601;-0.95256;9.73889;-0.64577;0.02369;-0.13325;-0.03117;-0.00611;0.08796;0.06109;21.18;-30.78;-7.32;59.546;-82.981;122.391;11826;2021-02-12 15:49:43:859
-0.9481;9.61751;-0.65601;-0.95256;9.73889;-0.64577;-0.05451;-0.1181;-0.01202;-0.00611;0.08796;0.06109;20.64;-30.9;-7.98;63.526;-83.261;124.134;11875;2021-02-12 15:49:43:908
-0.93613;9.62709;-0.68714;-0.87404;9.74556;-0.6561;-0.05451;-0.1181;-0.01202;-0.00977;0.21441;0.0843;20.64;-30.9;-7.98;63.526;-83.261;124.134;11925;2021-02-12 15:49:43:958
-0.93613;9.62709;-0.68714;-0.87404;9.74556;-0.6561;-0.10786;-0.11638;0.00722;-0.00977;0.21441;0.0843;20.64;-30.9;-7.98;63.526;-83.261;124.134;11975;2021-02-12 15:49:44:008
-0.92177;9.61033;-0.67038;-0.82155;9.74936;-0.66736;-0.10786;-0.11638;0.00722;-0.01588;0.27672;0.07269;19.98;-31.98;-8.7;70.079;-83.601;126.894;12026;2021-02-12 15:49:44:059
-0.92177;9.61033;-0.67038;-0.82155;9.74936;-0.66736;-0.10632;-0.14478;0.00209;-0.01588;0.27672;0.07269;19.98;-31.98;-8.7;70.079;-83.601;126.894;12076;2021-02-12 15:49:44:109
-0.92177;9.62469;-0.64883;-0.80113;9.75058;-0.67437;-0.10632;-0.14478;0.00209;-0.02199;0.33903;0.03787;19.92;-32.04;-7.62;70.646;-83.87;130.09;12126;2021-02-12 15:49:44:159
-0.92177;9.62469;-0.64883;-0.80113;9.75058;-0.67437;-0.10999;-0.11864;0.02565;-0.02199;0.33903;0.03787;19.92;-32.04;-7.62;70.646;-83.87;130.09;12175;2021-02-12 15:49:44:208
-0.91937;9.61511;-0.64404;-0.80301;9.75029;-0.67641;-0.10999;-0.11864;0.02565;-0.02199;0.33903;0.03787;19.92;-32.04;-7.62;70.646;-83.87;130.09;12227;2021-02-12 15:49:44:260
-0.91937;9.61511;-0.64404;-0.80301;9.75029;-0.67641;-0.09604;-0.13185;0.01857;-0.03299;0.3934;-0.00428;19.02;-32.1;-7.86;72.191;-83.854;130.109;12276;2021-02-12 15:49:44:309
-0.88825;9.6223;-0.66559;-0.8218;9.74868;-0.67693;-0.09604;-0.13185;0.01857;-0.03299;0.3934;-0.00428;19.02;-32.1;-7.86;72.191;-83.854;130.109;12329;2021-02-12 15:49:44:362
-0.88825;9.6223;-0.66559;-0.8218;9.74868;-0.67693;-0.06525;-0.1368;-0.00498;-0.0391;0.44654;-0.04826;19.62;-32.34;-8.34;70.162;-83.767;129.479;12376;2021-02-12 15:49:44:409
-0.9074;9.62469;-0.67277;-0.85346;9.74591;-0.67764;-0.06525;-0.1368;-0.00498;-0.0391;0.44654;-0.04826;19.62;-32.34;-8.34;70.162;-83.767;129.479;12425;2021-02-12 15:49:44:458
-0.90501;9.6223;-0.62728;-0.85346;9.74591;-0.67764;-0.02887;-0.1216;0.05033;-0.0391;0.44654;-0.04826;20.16;-31.5;-8.1;69.004;-83.62;128.449;12475;2021-02-12 15:49:44:508
-0.90501;9.6223;-0.62728;-0.89339;9.74228;-0.67841;-0.02887;-0.1216;0.05033;-0.04093;0.49114;-0.07514;20.16;-31.5;-8.1;69.004;-83.62;128.449;12526;2021-02-12 15:49:44:559
-0.91698;9.63427;-0.67038;-0.89339;9.74228;-0.67841;-0.00507;-0.10623;0.00893;-0.04093;0.49114;-0.07514;20.16;-31.5;-8.1;69.004;-83.62;128.449;12576;2021-02-12 15:49:44:609
-0.91698;9.63427;-0.67038;-0.92948;9.73865;-0.68208;-0.00507;-0.10623;0.00893;-0.04398;0.52473;-0.08063;20.04;-31.08;-8.04;67.973;-83.432;127.212;12625;2021-02-12 15:49:44:658
-0.92895;9.6199;-0.62489;-0.92948;9.73865;-0.68208;0.02202;-0.11376;0.00129;-0.04398;0.52473;-0.08063;20.04;-31.08;-8.04;67.973;-83.432;127.212;12675;2021-02-12 15:49:44:708
-0.92895;9.6199;-0.62489;-0.9655;9.7345;-0.6912;0.02202;-0.11376;0.00129;-0.04398;0.52473;-0.08063;20.94;-29.76;-6.9;62.636;-83.045;125.599;12725;2021-02-12 15:49:44:758
-0.92416;9.60075;-0.63686;-0.9655;9.7345;-0.6912;0.03721;-0.10358;-0.0093;-0.04459;0.551;-0.06109;20.94;-29.76;-6.9;62.636;-83.045;125.599;12776;2021-02-12 15:49:44:809
-0.93853;9.59357;-0.65601;-0.9772;9.73252;-0.70251;0.03721;-0.10358;-0.0093;-0.04459;0.551;-0.06109;20.94;-29.76;-6.9;62.636;-83.045;125.599;12826;2021-02-12 15:49:44:859
-0.93853;9.59357;-0.65601;-0.9772;9.73252;-0.70251;0.0379;-0.10808;0.00373;-0.0391;0.56627;-0.0226;21.12;-29.34;-6.84;62.58;-82.951;125.712;12878;2021-02-12 15:49:44:911
-0.92656;9.61033;-0.64165;-0.95756;9.73358;-0.71483;0.0379;-0.10808;0.00373;-0.0391;0.56627;-0.0226;21.12;-29.34;-6.84;62.58;-82.951;125.712;12926;2021-02-12 15:49:44:959
-0.92656;9.61033;-0.64165;-0.95756;9.73358;-0.71483;0.0379;-0.10808;0.00373;-0.04215;0.57238;0.0171;21.78;-30.12;-5.7;60.226;-83.001;126.742;12975;2021-02-12 15:49:45:008
-0.89064;9.60314;-0.6608;-0.90773;9.73793;-0.72052;-0.02129;-0.12649;0.0813;-0.04215;0.57238;0.0171;21.78;-30.12;-5.7;60.226;-83.001;126.742;13026;2021-02-12 15:49:45:059
-0.89064;9.60314;-0.6608;-0.90773;9.73793;-0.72052;-0.02129;-0.12649;0.0813;-0.04215;0.57238;0.0171;21.9;-31.14;-6.54;64.533;-83.213;128.441;13076;2021-02-12 15:49:45:109
-0.91219;9.60554;-0.65122;-0.8426;9.74438;-0.71241;-0.05688;-0.1375;0.06435;-0.04704;0.57055;0.05192;21.9;-31.14;-6.54;64.533;-83.213;128.441;13126;2021-02-12 15:49:45:159
-0.91219;9.60554;-0.65122;-0.8426;9.74438;-0.71241;-0.05688;-0.1375;0.06435;-0.04704;0.57055;0.05192;21.9;-31.14;-6.54;64.533;-83.213;128.441;13176;2021-02-12 15:49:45:209
-0.89543;9.61511;-0.65601;-0.78765;9.75012;-0.69661;-0.09874;-0.13401;0.04416;-0.04948;0.56077;0.06414;21.66;-30.96;-6.12;63.525;-83.54;130.214;13225;2021-02-12 15:49:45:258
-0.8691;9.60793;-0.67995;-0.78765;9.75012;-0.69661;-0.09874;-0.13401;0.04416;-0.04948;0.56077;0.06414;21.66;-30.96;-6.12;63.525;-83.54;130.214;13276;2021-02-12 15:49:45:309
-0.8691;9.60793;-0.67995;-0.74841;9.75416;-0.68311;-0.11219;-0.13121;0.04403;-0.04826;0.54489;0.05559;21.06;-30.54;-5.52;66.194;-84.069;132.388;13325;2021-02-12 15:49:45:358
-0.87149;9.59596;-0.65122;-0.74841;9.75416;-0.68311;-0.11219;-0.13121;0.04403;-0.04826;0.54489;0.05559;21.06;-30.54;-5.52;66.194;-84.069;132.388;13376;2021-02-12 15:49:45:409
-0.87149;9.59596;-0.65122;-0.73265;9.75579;-0.67686;-0.12057;-0.13331;0.01238;-0.04826;0.54489;0.05559;22.14;-31.56;-5.22;63.079;-84.162;132.733;13425;2021-02-12 15:49:45:458
-0.84515;9.60793;-0.65601;-0.73265;9.75579;-0.67686;-0.12057;-0.13331;0.01238;-0.04826;0.52229;0.02505;22.14;-31.56;-5.22;63.079;-84.162;132.733;13475;2021-02-12 15:49:45:508
-0.84515;9.60793;-0.65601;-0.73417;9.75592;-0.6733;-0.11281;-0.14334;-0.00898;-0.04826;0.52229;0.02505;22.14;-31.56;-5.22;63.079;-84.162;132.733;13526;2021-02-12 15:49:45:559
-0.84515;9.61511;-0.67516;-0.73417;9.75592;-0.6733;-0.11281;-0.14334;-0.00898;-0.04032;0.49541;-0.01649;21.78;-31.5;-4.26;59.989;-84.17;132.524;13576;2021-02-12 15:49:45:609
-0.84515;9.61511;-0.67516;-0.75029;9.75443;-0.67722;-0.08008;-0.1158;-0.00164;-0.04032;0.49541;-0.01649;21.78;-31.5;-4.26;59.989;-84.17;132.524;13626;2021-02-12 15:49:45:659
-0.84755;9.62948;-0.67756;-0.75029;9.75443;-0.67722;-0.08008;-0.1158;-0.00164;-0.04032;0.49541;-0.01649;21.3;-30.96;-3.12;57.679;-84.084;132.07;13675;2021-02-12 15:49:45:708
-0.84755;9.62948;-0.67756;-0.78825;9.75093;-0.68448;-0.09194;-0.1442;-0.01874;0.01466;-0.07697;-0.06231;21.3;-30.96;-3.12;57.679;-84.084;132.07;13725;2021-02-12 15:49:45:758
-0.84994;9.61033;-0.67756;-0.78825;9.75093;-0.68448;-0.09194;-0.1442;-0.01874;0.01466;-0.07697;-0.06231;21.3;-30.96;-3.12;57.679;-84.084;132.07;13776;2021-02-12 15:49:45:809
-0.84994;9.61033;-0.67756;-0.86891;9.7433;-0.69536;-7.2E-4;-0.10357;0.01274;0.02443;-0.11301;-0.08369;21.96;-31.02;-3.6;58.694;-83.889;130.97;13825;2021-02-12 15:49:45:858
-0.85712;9.6199;-0.68714;-0.86891;9.7433;-0.69536;-7.2E-4;-0.10357;0.01274;0.02443;-0.11301;-0.08369;21.96;-31.02;-3.6;58.694;-83.889;130.97;13875;2021-02-12 15:49:45:908
-0.85712;9.6199;-0.68714;-0.94255;9.73562;-0.70693;0.05349;-0.09827;-0.01713;0.02566;-0.15088;-0.08186;22.56;-30.48;-3.66;54.158;-83.1;126.87;13925;2021-02-12 15:49:45:958
-0.8691;9.60554;-0.69671;-0.94255;9.73562;-0.70693;0.05349;-0.09827;-0.01713;0.02566;-0.15088;-0.08186;22.56;-30.48;-3.66;54.158;-83.1;126.87;13975;2021-02-12 15:49:46:008
-0.8691;9.60554;-0.69671;-0.99921;9.72904;-0.71955;0.09973;-0.0911;-0.028;0.02566;-0.15088;-0.08186;22.44;-30.12;-3.18;51.402;-82.787;125.758;14026;2021-02-12 15:49:46:059
-0.88825;9.63906;-0.69911;-0.99921;9.72904;-0.71955;0.09973;-0.0911;-0.028;0.02932;-0.18876;-0.05864;22.44;-30.12;-3.18;51.402;-82.787;125.758;14076;2021-02-12 15:49:46:109
-0.88825;9.63906;-0.69911;-1.01957;9.72645;-0.72595;0.13913;-0.13308;0.00519;0.02932;-0.18876;-0.05864;22.44;-30.12;-3.18;51.402;-82.787;125.758;14126;2021-02-12 15:49:46:159
-0.87388;9.59596;-0.73981;-1.01957;9.72645;-0.72595;0.13913;-0.13308;0.00519;0.02443;-0.22785;-0.01894;22.5;-29.76;-3.84;53.122;-82.667;125.452;14175;2021-02-12 15:49:46:208
-0.87388;9.59596;-0.73981;-1.01531;9.72688;-0.72615;0.12215;-0.08748;0.05478;0.02443;-0.22785;-0.01894;22.5;-29.76;-3.84;53.122;-82.667;125.452;14226;2021-02-12 15:49:46:259
-0.88585;9.59117;-0.71108;-1.01531;9.72688;-0.72615;0.12215;-0.08748;0.05478;0.02443;-0.22785;-0.01894;22.56;-30.06;-3.0;50.576;-82.687;125.573;14277;2021-02-12 15:49:46:310
-0.88585;9.59117;-0.71108;-0.99345;9.72939;-0.72283;0.09887;-0.12084;0.0147;0.02138;-0.26695;0.02382;22.56;-30.06;-3.0;50.576;-82.687;125.573;14326;2021-02-12 15:49:46:359
-0.89304;9.62709;-0.68953;-0.99345;9.72939;-0.72283;0.09887;-0.12084;0.0147;0.02138;-0.26695;0.02382;22.56;-30.06;-3.0;50.576;-82.687;125.573;14376;2021-02-12 15:49:46:409
-0.89304;9.62709;-0.68953;-0.95906;9.73347;-0.71421;0.05884;-0.12075;-0.01363;0.01466;-0.29932;0.05376;22.32;-30.78;-2.82;51.985;-82.803;126.04;14425;2021-02-12 15:49:46:458
-0.87628;9.61751;-0.68953;-0.95906;9.73347;-0.71421;0.05884;-0.12075;-0.01363;0.01466;-0.29932;0.05376;22.32;-30.78;-2.82;51.985;-82.803;126.04;14476;2021-02-12 15:49:46:509
-0.88825;9.61751;-0.71587;-0.91778;9.73854;-0.69925;0.03911;-0.10427;-0.00225;0.01405;-0.32987;0.06781;22.26;-30.9;-2.58;52.814;-83.243;127.304;14526;2021-02-12 15:49:46:559
-0.88825;9.61751;-0.71587;-0.91778;9.73854;-0.69925;0.03911;-0.10427;-0.00225;0.01405;-0.32987;0.06781;22.26;-30.9;-2.58;52.814;-83.243;127.304;14576;2021-02-12 15:49:46:609
-0.8691;9.62709;-0.71826;-0.87591;9.74348;-0.68396;-0.00755;-0.12597;0.01119;0.01405;-0.32987;0.06781;22.8;-30.3;-3.06;52.28;-83.493;127.985;14626;2021-02-12 15:49:46:659
-0.8691;9.62709;-0.71826;-0.87591;9.74348;-0.68396;-0.00755;-0.12597;0.01119;0.01466;-0.35247;0.0562;22.8;-30.3;-3.06;52.28;-83.493;127.985;14675;2021-02-12 15:49:46:708
-0.85952;9.64624;-0.67516;-0.84893;9.74667;-0.67246;-0.01298;-0.11479;-0.04101;0.01466;-0.35247;0.0562;22.8;-30.3;-3.06;52.28;-83.493;127.985;14726;2021-02-12 15:49:46:759
-0.85952;9.64624;-0.67516;-0.84893;9.74667;-0.67246;-0.01298;-0.11479;-0.04101;0.01955;-0.36774;0.02749;22.32;-31.14;-3.96;56.191;-83.66;128.384;14776;2021-02-12 15:49:46:809
-0.87867;9.64624;-0.68474;-0.84671;9.74737;-0.66507;-0.00323;-0.12268;-0.01249;0.01955;-0.36774;0.02749;22.32;-31.14;-3.96;56.191;-83.66;128.384;14825;2021-02-12 15:49:46:858
-0.87867;9.64624;-0.68474;-0.84671;9.74737;-0.66507;-0.00323;-0.12268;-0.01249;0.01955;-0.36774;0.02749;21.66;-31.68;-3.24;53.408;-83.697;128.149;14876;2021-02-12 15:49:46:909
-0.85473;9.6223;-0.69192;-0.87405;9.74528;-0.66033;0.00256;-0.1134;-0.04117;0.02505;-0.37629;-0.01283;21.66;-31.68;-3.24;53.408;-83.697;128.149;14926;2021-02-12 15:49:46:959
-0.85473;9.6223;-0.69192;-0.87405;9.74528;-0.66033;0.00256;-0.1134;-0.04117;0.02505;-0.37629;-0.01283;21.66;-31.68;-3.24;53.408;-83.697;128.149;14976;2021-02-12 15:49:47:009
-0.8691;9.61511;-0.67995;-0.92526;9.74061;-0.65935;0.05617;-0.1255;-0.02061;0.03299;-0.38057;-0.0507;21.42;-30.9;-4.38;55.75;-83.586;127.07;15026;2021-02-12 15:49:47:059
-0.8691;9.61511;-0.67995;-0.92526;9.74061;-0.65935;0.05617;-0.1255;-0.02061;0.03299;-0.38057;-0.0507;21.42;-30.9;-4.38;55.75;-83.586;127.07;15075;2021-02-12 15:49:47:108
-0.89064;9.61511;-0.66559;-0.98637;9.73425;-0.66466;0.09573;-0.11914;-9.3E-4;0.03604;-0.37874;-0.06903;21.6;-30.9;-5.1;54.849;-83.034;123.974;15125;2021-02-12 15:49:47:158
-0.89064;9.61511;-0.66559;-0.98637;9.73425;-0.66466;0.09573;-0.11914;-9.3E-4;0.03604;-0.37874;-0.06903;21.6;-30.9;-5.1;54.849;-83.034;123.974;15175;2021-02-12 15:49:47:208
-0.93134;9.63187;-0.63207;-1.03945;9.72847;-0.66847;0.1081;-0.0966;0.03641;0.03604;-0.37874;-0.06903;22.26;-30.78;-4.14;51.131;-82.76;122.745;15225;2021-02-12 15:49:47:258
-0.93134;9.63187;-0.63207;-1.03945;9.72847;-0.66847;0.1081;-0.0966;0.03641;0.03971;-0.3708;-0.06781;22.26;-30.78;-4.14;51.131;-82.76;122.745;15276;2021-02-12 15:49:47:309
-0.91459;9.61751;-0.64643;-1.06764;9.72549;-0.66736;0.15305;-0.10798;0.02093;0.03971;-0.3708;-0.06781;22.26;-30.78;-4.14;51.131;-82.76;122.745;15326;2021-02-12 15:49:47:359
-0.91459;9.61751;-0.64643;-1.06764;9.72549;-0.66736;0.15305;-0.10798;0.02093;0.0336;-0.36041;-0.0452;21.48;-31.08;-4.56;54.284;-82.624;122.009;15376;2021-02-12 15:49:47:409
-0.93374;9.60075;-0.62249;-1.07714;9.72468;-0.66389;0.14101;-0.12633;-0.00409;0.0336;-0.36041;-0.0452;21.48;-31.08;-4.56;54.284;-82.624;122.009;15425;2021-02-12 15:49:47:458
-0.93374;9.60075;-0.62249;-1.07714;9.72468;-0.66389;0.14101;-0.12633;-0.00409;0.0336;-0.36041;-0.0452;22.26;-30.36;-5.76;55.185;-82.587;121.647;15475;2021-02-12 15:49:47:508
-0.94332;9.61272;-0.65362;-1.06966;9.72571;-0.66088;0.12395;-0.12257;-0.02386;0.03543;-0.34636;-0.01038;22.26;-30.36;-5.76;55.185;-82.587;121.647;15527;2021-02-12 15:49:47:560
-0.94332;9.61272;-0.65362;-1.06966;9.72571;-0.66088;0.12395;-0.12257;-0.02386;0.03543;-0.34636;-0.01038;22.26;-30.36;-5.76;55.185;-82.587;121.647;15575;2021-02-12 15:49:47:608
-0.94092;9.59835;-0.6608;-1.04635;9.72832;-0.65984;0.09585;-0.09645;-0.01054;0.03176;-0.3262;0.02871;21.96;-30.54;-5.16;52.858;-82.634;121.709;15626;2021-02-12 15:49:47:659
-0.94092;9.59835;-0.6608;-1.04635;9.72832;-0.65984;0.09585;-0.09645;-0.01054;0.03176;-0.3262;0.02871;21.96;-30.54;-5.16;52.858;-82.634;121.709;15675;2021-02-12 15:49:47:708
-0.9481;9.61272;-0.65841;-1.01165;9.732;-0.65969;0.0827;-0.11928;-0.02984;0.02566;-0.30238;0.05681;21.6;-30.36;-5.22;53.748;-82.926;123.108;15726;2021-02-12 15:49:47:759
-0.92416;9.61272;-0.66319;-1.01165;9.732;-0.65969;0.0827;-0.11928;-0.02984;0.02566;-0.30238;0.05681;21.6;-30.36;-5.22;53.748;-82.926;123.108;15776;2021-02-12 15:49:47:809
-0.92416;9.61272;-0.66319;-0.96756;9.7366;-0.65795;0.05058;-0.10712;-0.03397;0.02566;-0.30238;0.05681;21.66;-30.48;-6.06;57.286;-83.147;124.216;15826;2021-02-12 15:49:47:859
-0.91459;9.59357;-0.69432;-0.96756;9.7366;-0.65795;0.05058;-0.10712;-0.03397;0.02077;-0.27733;0.06414;21.66;-30.48;-6.06;57.286;-83.147;124.216;15876;2021-02-12 15:49:47:909
-0.91459;9.59357;-0.69432;-0.92314;9.741;-0.65662;-0.0082;-0.09955;-0.02572;0.02077;-0.27733;0.06414;21.66;-30.48;-6.06;57.286;-83.147;124.216;15925;2021-02-12 15:49:47:958
-0.91459;9.6199;-0.64404;-0.92314;9.741;-0.65662;-0.0082;-0.09955;-0.02572;0.01405;-0.24679;0.04887;21.12;-30.72;-6.84;62.296;-83.366;125.424;15976;2021-02-12 15:49:48:009
-0.91459;9.6199;-0.64404;-0.89153;9.74399;-0.6559;8.9E-4;-0.12409;-0.11504;0.01405;-0.24679;0.04887;21.12;-30.72;-6.84;62.296;-83.366;125.424;16026;2021-02-12 15:49:48:059
-0.81642;9.62709;-0.74699;-0.89153;9.74399;-0.6559;8.9E-4;-0.12409;-0.11504;0.01405;-0.24679;0.04887;20.7;-31.14;-6.18;60.499;-83.52;126.342;16075;2021-02-12 15:49:48:108
-0.81642;9.62709;-0.74699;-0.8762;9.74442;-0.67004;0.0909;-0.06706;-0.11286;0.02443;-0.25045;0.01527;20.7;-31.14;-6.18;60.499;-83.52;126.342;16126;2021-02-12 15:49:48:159
-0.88825;9.62469;-0.7853;-0.8762;9.74442;-0.67004;0.0909;-0.06706;-0.11286;0.02443;-0.25045;0.01527;20.7;-31.14;-6.18;60.499;-83.52;126.342;16175;2021-02-12 15:49:48:208
-0.88825;9.62469;-0.7853;-0.89315;9.73612;-0.76198;0.09588;0.0011;-0.155;0.03176;-0.29932;-0.0281;20.28;-30.96;-6.66;65.491;-83.542;127.406;16226;2021-02-12 15:49:48:259
-0.89783;9.78989;-1.0319;-0.89315;9.73612;-0.76198;0.09588;0.0011;-0.155;0.03176;-0.29932;-0.0281;20.28;-30.96;-6.66;65.491;-83.542;127.406;16275;2021-02-12 15:49:48:308
-0.89783;9.78989;-1.0319;-0.9431;9.7272;-0.81399;0.10752;-0.24377;0.34952;0.13683;-0.28894;-0.05559;20.16;-31.44;-6.3;67.787;-82.702;130.798;16325;2021-02-12 15:49:48:358
