"Time (s)","Linear Acceleration x (m/s^2)","Linear Acceleration y (m/s^2)","Linear Acceleration z (m/s^2)","Absolute acceleration (m/s^2)"
1.379142800E-2,-7.022708654E-2,-2.115595341E-1,1.133790970E0,1.155496103E0
2.172599800E-2,-5.346769094E-2,-1.852233410E-1,1.076330185E0,1.093459257E0
2.963005100E-2,-4.993867874E-2,-1.831735373E-1,1.049258232E0,1.066296982E0
3.753410400E-2,-3.659147024E-2,-1.647971869E-1,1.017335892E0,1.031246510E0
4.549919200E-2,-4.147398472E-2,-1.625539064E-1,9.855880737E-1,9.997638296E-1
5.340324400E-2,-3.727638721E-2,-1.647015810E-1,9.850082397E-1,9.993784930E-1
6.130729700E-2,-1.626127958E-2,-1.358931065E-1,9.383258820E-1,9.482546211E-1
6.924186800E-2,-2.463138103E-2,-1.280215979E-1,8.607425690E-1,8.705595927E-1
7.711540300E-2,-4.045546055E-3,-1.089164019E-1,8.020505905E-1,8.094222006E-1
8.498893800E-2,-4.229784012E-3,-7.729721069E-2,7.143421173E-1,7.185244675E-1
9.292350800E-2,1.726669073E-2,-6.673002243E-2,6.313886642E-1,6.351398900E-1
1.007970430E-1,1.154303551E-2,-5.574822426E-2,5.438175201E-1,5.467893574E-1
1.087316140E-1,2.587032318E-2,-4.672956467E-2,4.825830460E-1,4.855299394E-1
1.166051490E-1,3.483331203E-2,-2.434468269E-2,4.091749191E-1,4.113759080E-1
1.245702370E-1,2.417695522E-2,-1.798892021E-2,3.360128403E-1,3.373614608E-1
1.325048070E-1,5.108717084E-2,1.652598381E-3,2.601013184E-1,2.650760757E-1
1.404088600E-1,5.422583222E-2,1.887559891E-2,1.818141937E-1,1.906649683E-1
1.483434300E-1,4.226645827E-2,1.933085918E-2,1.778450012E-1,1.838177904E-1
1.562169650E-1,5.706769228E-2,1.568007469E-2,1.762990952E-1,1.859676241E-1
1.641210180E-1,5.529770255E-2,1.459133625E-2,1.460752487E-1,1.568716714E-1
1.720861060E-1,5.395796895E-2,3.125941753E-2,1.395807266E-1,1.528770514E-1
1.799596410E-1,4.626739025E-2,1.560318470E-2,1.525039673E-1,1.601299185E-1
1.878942110E-1,6.892842054E-2,2.095258236E-2,1.675844193E-1,1.824134738E-1
1.957677460E-1,4.659149051E-2,-2.378940582E-3,1.784515381E-1,1.844488487E-1
2.037328340E-1,5.239990354E-2,9.118318558E-3,1.747484207E-1,1.826633630E-1
2.116674050E-1,5.011686683E-2,1.204395294E-2,1.635932922E-1,1.715212010E-1
2.195409400E-1,3.426423669E-2,5.261182785E-3,1.460113525E-1,1.500700937E-1
2.275060280E-1,3.164753318E-2,-1.592326164E-2,1.357574463E-1,1.403039587E-1
2.354100800E-1,3.040900826E-2,-2.755761147E-3,1.683959961E-1,1.711417936E-1
2.432836160E-1,1.479220390E-2,-2.279782295E-2,1.896343231E-1,1.915717269E-1
2.512487030E-1,2.660229802E-2,-1.648271084E-2,1.725139618E-1,1.753294871E-1
2.590917210E-1,2.022850513E-2,-2.452087402E-2,1.745939255E-1,1.774640935E-1
2.670568090E-1,2.303668857E-2,-2.907180786E-2,1.624794006E-1,1.666595772E-1
2.749303440E-1,8.593350649E-3,-3.588342667E-2,2.103233337E-1,2.135354085E-1
2.828954320E-1,4.067361355E-3,-4.744279385E-2,2.438240051E-1,2.484300859E-1
2.908300020E-1,-6.493270397E-3,-7.141613960E-2,3.136186600E-1,3.217127468E-1
2.987035370E-1,-5.861252546E-3,-1.011734009E-1,4.362945557E-1,4.479099805E-1
3.066381080E-1,-2.596846223E-2,-1.745325327E-1,4.993686676E-1,5.296272578E-1
3.145421610E-1,-5.901366472E-2,-2.619855404E-1,5.928840637E-1,6.508690721E-1
3.224156960E-1,-7.811695337E-2,-3.793035746E-1,6.504878998E-1,7.570389474E-1
3.303502660E-1,-1.143467128E-1,-4.525334835E-1,6.961669922E-1,8.381588187E-1
3.382543190E-1,-1.535390019E-1,-5.602877140E-1,7.345304489E-1,9.364996145E-1
3.461888890E-1,-1.595009863E-1,-6.786975861E-1,7.636346817E-1,1.034025582E0
3.540624240E-1,-2.041961849E-1,-7.702448368E-1,8.050231934E-1,1.132711584E0
3.620275120E-1,-2.276307642E-1,-9.043358564E-1,8.540382385E-1,1.264523791E0
3.699926000E-1,-2.394685149E-1,-1.021965027E0,9.083271027E-1,1.388097911E0
3.778051000E-1,-2.923783362E-1,-1.136196971E0,9.250574112E-1,1.494041453E0
3.857701880E-1,-2.902840972E-1,-1.270625830E0,9.594516754E-1,1.618425894E0
3.936742410E-1,-3.340575099E-1,-1.372066498E0,9.612226486E-1,1.708247603E0
4.015782930E-1,-3.588908911E-1,-1.515180111E0,9.881124496E-1,1.844163673E0
4.095128640E-1,-4.080138206E-1,-1.653684974E0,1.023421288E0,1.987093456E0
4.173863990E-1,-4.381879568E-1,-1.782785177E0,1.076966286E0,2.128423843E0
4.253209690E-1,-4.518804550E-1,-1.928460717E0,1.136877060E0,2.283778915E0
4.331945040E-1,-4.872186482E-1,-2.097451925E0,1.220007896E0,2.474895120E0
4.411595920E-1,-5.054646730E-1,-2.246311426E0,1.278598785E0,2.633671280E0
4.490941620E-1,-5.456334949E-1,-2.385861158E0,1.336753845E0,2.788720176E0
4.569982150E-1,-5.859186649E-1,-2.511816263E0,1.377737045E0,2.924154748E0
4.649327860E-1,-6.046938896E-1,-2.684317112E0,1.401600838E0,3.087992546E0
4.728368380E-1,-6.043712497E-1,-2.825635195E0,1.430039406E0,3.224048939E0
4.807408910E-1,-6.446954012E-1,-2.981774092E0,1.451023102E0,3.378176570E0
4.887059790E-1,-6.683892012E-1,-3.122430325E0,1.452691078E0,3.508080191E0
4.966100320E-1,-6.871089935E-1,-3.246654987E0,1.415844917E0,3.607977855E0
5.045446020E-1,-7.132201195E-1,-3.385332584E0,1.409908295E0,3.735906991E0
5.124181370E-1,-7.228172421E-1,-3.529638290E0,1.365576744E0,3.853000269E0
5.203832250E-1,-7.589719892E-1,-3.665850639E0,1.323321342E0,3.970601814E0
5.283177950E-1,-7.643199563E-1,-3.760692358E0,1.278799057E0,4.045036345E0
5.361913300E-1,-7.480272055E-1,-3.901368141E0,1.260103226E0,4.167502635E0
5.441259010E-1,-7.820534706E-1,-4.026151657E0,1.240929604E0,4.285021713E0
5.520299530E-1,-7.828823328E-1,-4.146187305E0,1.233558655E0,4.396071072E0
5.599034890E-1,-7.982703447E-1,-4.278501511E0,1.247073174E0,4.527471946E0
5.678685770E-1,-8.187145591E-1,-4.394331932E0,1.279005051E0,4.649333348E0
5.757726290E-1,-8.058976531E-1,-4.511362076E0,1.262490273E0,4.753497712E0
5.837377170E-1,-8.121717572E-1,-4.614208221E0,1.230722427E0,4.844091057E0
5.916112520E-1,-8.522998691E-1,-4.734928131E0,1.167155266E0,4.950576824E0
5.995458230E-1,-8.249311447E-1,-4.822153568E0,1.128094673E0,5.020585028E0
6.075414280E-1,-8.531284332E-1,-4.925981045E0,1.076595306E0,5.113919713E0
6.154454810E-1,-8.380491734E-1,-5.022777081E0,1.039834023E0,5.197294567E0
6.233800510E-1,-8.421557546E-1,-5.104086399E0,9.869194031E-1,5.266396699E0
6.312535860E-1,-8.429887295E-1,-5.181868553E0,9.541978836E-1,5.335998998E0
6.390966040E-1,-8.398391604E-1,-5.258338928E0,8.373727798E-1,5.390422179E0
6.470616920E-1,-8.449934721E-1,-5.320456028E0,7.285985947E-1,5.436186368E0
6.549352270E-1,-8.423745632E-1,-5.376722336E0,6.858663559E-1,5.485357841E0
6.628697970E-1,-8.441067934E-1,-5.427408695E0,5.941677094E-1,5.524700597E0
6.707738500E-1,-8.236863613E-1,-5.499965668E0,5.136451721E-1,5.584972062E0
6.787389380E-1,-8.382645845E-1,-5.558333397E0,4.789104462E-1,5.641552347E0
6.867040260E-1,-8.544914126E-1,-5.600347519E0,4.287033081E-1,5.681358502E0
6.946080780E-1,-8.194026351E-1,-5.643020153E0,3.929948807E-1,5.715727609E0
7.025731660E-1,-8.429600000E-1,-5.683012486E0,3.687448502E-1,5.757011832E0
7.104772190E-1,-8.132480979E-1,-5.721146107E0,3.358011246E-1,5.788406312E0
7.183812720E-1,-8.377770782E-1,-5.742791176E0,3.082818985E-1,5.811760375E0
7.263463600E-1,-8.208523393E-1,-5.782035351E0,2.767944336E-1,5.846567071E0
7.342504120E-1,-8.103588820E-1,-5.799517155E0,2.227811813E-1,5.860094897E0
7.422155000E-1,-8.253852129E-1,-5.830431938E0,1.793327332E-1,5.891295067E0
7.500585180E-1,-8.081685305E-1,-5.830972672E0,9.092998505E-2,5.887414282E0
7.579625710E-1,-8.117235303E-1,-5.859236717E0,2.967834473E-2,5.915270983E0
7.658971410E-1,-8.312644958E-1,-5.867548943E0,-1.394462585E-2,5.926156065E0
7.738011940E-1,-8.161562085E-1,-5.878612518E0,-5.503654480E-2,5.935252743E0
7.817357640E-1,-8.120740652E-1,-5.881563187E0,-1.146011353E-1,5.938466404E0
7.896398170E-1,-8.115777969E-1,-5.904011726E0,-1.573877335E-1,5.961609169E0
7.975438690E-1,-8.197236061E-1,-5.894229889E0,-1.972770691E-1,5.954226315E0
8.055089570E-1,-8.222101331E-1,-5.926809311E0,-2.388792038E-1,5.988335444E0
8.133824930E-1,-8.379483223E-1,-5.934976578E0,-2.283391953E-1,5.998186656E0
8.213170630E-1,-8.192936778E-1,-5.931453705E0,-2.035608292E-1,5.991228772E0
8.292211160E-1,-8.330497742E-1,-5.952252388E0,-1.645126343E-1,6.012515682E0
8.371862030E-1,-8.574709892E-1,-5.945362091E0,-1.121644974E-1,6.007925413E0
8.451207740E-1,-8.497073650E-1,-5.955171585E0,-6.253623962E-2,6.015811001E0
8.530248270E-1,-8.315790296E-1,-5.941349983E0,-3.214740753E-2,5.999349695E0
8.609593970E-1,-8.217745423E-1,-5.950090408E0,-7.546424866E-3,6.006575248E0
8.688634500E-1,-8.423641324E-1,-5.930233955E0,2.892875671E-2,5.989832132E0
8.767675020E-1,-8.525305986E-1,-5.934671402E0,3.195476532E-2,5.995677958E0
8.847325900E-1,-8.424590826E-1,-5.901919842E0,5.817604065E-2,5.962028143E0
8.926366430E-1,-8.557482958E-1,-5.893241882E0,4.859924316E-2,5.955247007E0
9.006017310E-1,-8.445632458E-1,-5.855927944E0,6.793308258E-2,5.916907475E0
9.084752660E-1,-8.421021700E-1,-5.829287052E0,6.526565552E-2,5.890159863E0
9.163488010E-1,-8.559018373E-1,-5.788999557E0,8.725357056E-2,5.852580373E0
9.243138890E-1,-8.596480489E-1,-5.741264820E0,1.095600128E-1,5.806300018E0
9.322179420E-1,-8.580302000E-1,-5.720484257E0,1.866407394E-1,5.787485699E0
9.401830300E-1,-8.537809253E-1,-5.658812523E0,2.739553452E-1,5.729411189E0
9.480260470E-1,-8.511751890E-1,-5.628792286E0,3.421144485E-1,5.703055681E0
9.559301000E-1,-8.314824104E-1,-5.593838692E0,4.256401062E-1,5.671292957E0
9.638951880E-1,-8.447402716E-1,-5.523959637E0,5.001811981E-1,5.610516681E0
9.717687230E-1,-8.240858316E-1,-5.481352806E0,5.707206726E-1,5.572258800E0
9.797032930E-1,-8.127517700E-1,-5.387925148E0,6.498384476E-1,5.487494223E0
9.876073460E-1,-8.225768805E-1,-5.326793671E0,7.135038376E-1,5.436952387E0
9.955724340E-1,-8.033379912E-1,-5.233025551E0,7.570476532E-1,5.348180017E0
1.003507004E0,-7.979844809E-1,-5.142280579E0,8.021678925E-1,5.265292215E0
1.011380539E0,-7.827125788E-1,-5.047246933E0,8.451595306E-1,5.177029575E0
1.019345627E0,-7.719777822E-1,-4.970223427E0,8.856306076E-1,5.107192201E0
1.027249680E0,-7.561088204E-1,-4.822777271E0,9.047250748E-1,4.964817078E0
1.035153733E0,-7.403136492E-1,-4.724705219E0,9.544887543E-1,4.876674327E0
1.043149338E0,-7.174021006E-1,-4.614201069E0,9.864759445E-1,4.772698615E0
1.051053391E0,-7.043523788E-1,-4.495454311E0,1.027628899E0,4.664894735E0
1.058987961E0,-6.986490488E-1,-4.349720001E0,1.056526184E0,4.530388743E0
1.066861496E0,-6.882758141E-1,-4.247793198E0,1.101648331E0,4.441970249E0
1.074735032E0,-6.472518444E-1,-4.134296894E0,1.132402420E0,4.335167932E0
1.082700119E0,-6.278389096E-1,-4.007050514E0,1.188979149E0,4.226618854E0
1.090573655E0,-6.229185462E-1,-3.894049406E0,1.238247871E0,4.133389176E0
1.098508225E0,-6.012418866E-1,-3.742901802E0,1.273058891E0,3.998935439E0
1.106412278E0,-5.599492788E-1,-3.500494480E0,1.295272827E0,3.774219985E0
1.114285813E0,-5.397440195E-1,-3.320360661E0,1.329606056E0,3.617177185E0
1.122250901E0,-5.063437819E-1,-3.195009708E0,1.344976425E0,3.503345922E0
1.130093918E0,-4.896349311E-1,-3.072601318E0,1.403308868E0,3.413194546E0
1.138028489E0,-4.657447934E-1,-2.921574116E0,1.387214661E0,3.267549241E0
1.145932541E0,-4.393050075E-1,-2.774324417E0,1.392361641E0,3.135049569E0
1.153928147E0,-4.126659334E-1,-2.623263359E0,1.349478722E0,2.978740782E0
1.161862717E0,-3.668434620E-1,-2.483156919E0,1.325463295E0,2.838572768E0
1.169766770E0,-3.665411472E-1,-2.325994730E0,1.289319992E0,2.684576305E0
1.177701340E0,-3.517553806E-1,-2.177335739E0,1.257706642E0,2.538966082E0
1.185574875E0,-3.393754363E-1,-2.031927824E0,1.230560303E0,2.399621851E0
1.193448411E0,-3.105478883E-1,-1.884046674E0,1.246125221E0,2.280109630E0
1.201382981E0,-2.842873931E-1,-1.752344012E0,1.222914696E0,2.155701559E0
1.209256516E0,-2.485075891E-1,-1.593861103E0,1.223103523E0,2.024384219E0
1.217221604E0,-2.127963901E-1,-1.466221094E0,1.179565430E0,1.893795449E0
1.225064621E0,-1.939687431E-1,-1.314910412E0,1.147245407E0,1.755786231E0
1.232968674E0,-1.876113117E-1,-1.181430817E0,1.130753517E0,1.646080282E0
1.240933762E0,-1.624294221E-1,-1.050043821E0,1.125302315E0,1.547669423E0
1.248837815E0,-1.472218931E-1,-9.287203550E-1,1.085239410E0,1.435945807E0
1.256772385E0,-1.276091635E-1,-7.897080183E-1,1.065411568E0,1.332300515E0
1.264676438E0,-1.202508807E-1,-6.560471058E-1,1.015523911E0,1.214967856E0
1.272580491E0,-8.951646090E-2,-5.391738415E-1,9.711160660E-1,1.114355438E0
1.280545578E0,-7.354292274E-2,-3.800289631E-1,9.011497498E-1,9.807657446E-1
1.288419114E0,-6.300628185E-2,-2.872582674E-1,8.293037415E-1,8.799044263E-1
1.296353684E0,-4.849430919E-2,-1.638642550E-1,7.408723831E-1,7.603256409E-1
1.304227219E0,-4.166617990E-2,-5.061292648E-2,6.672611237E-1,6.704738220E-1
1.312192307E0,-2.360248566E-2,5.668210983E-2,6.125793457E-1,6.156487584E-1
1.320126877E0,-1.076024771E-2,1.637798548E-1,5.989055634E-1,6.209891284E-1
1.328030930E0,7.607847452E-3,3.226586580E-1,6.012287140E-1,6.823799935E-1
1.335965500E0,-1.872837543E-2,3.250529766E-1,5.509500504E-1,6.399657394E-1
1.343839036E0,-9.405016899E-4,4.136161804E-1,5.357503891E-1,6.768365450E-1
1.351712571E0,1.126191020E-2,4.893965721E-1,5.005798340E-1,7.001542727E-1
1.359677659E0,1.988050342E-2,5.588481426E-1,4.690685272E-1,7.298847609E-1
1.367581711E0,6.315648556E-3,6.189529896E-1,4.367685318E-1,7.575681099E-1
1.375516282E0,1.605778933E-2,6.785683632E-1,4.129981995E-1,7.945315531E-1
1.383420334E0,1.763832569E-2,7.224917412E-1,3.902540207E-1,8.213425761E-1
1.391293869E0,6.731390953E-3,7.732102871E-1,3.974514008E-1,8.694061627E-1
1.399258957E0,1.453447342E-2,7.923290730E-1,3.674697876E-1,8.735162595E-1
1.407163010E0,2.013206482E-3,8.382570744E-1,3.405275345E-1,9.047861501E-1
1.415097580E0,1.969122887E-2,8.594088554E-1,3.120880127E-1,9.145328058E-1
1.423001633E0,1.495188475E-2,8.750901222E-1,2.797632217E-1,9.188436979E-1
1.430905686E0,5.004227161E-3,8.887274265E-1,2.479734421E-1,9.226875468E-1
1.438840256E0,1.891613007E-3,8.830361366E-1,2.315797806E-1,9.128995517E-1
1.446713791E0,-6.864964962E-3,8.724589348E-1,2.233877182E-1,9.006296649E-1
1.454678879E0,9.653151035E-3,8.481185436E-1,2.516698837E-1,8.847236731E-1
1.462552414E0,-1.026600599E-2,8.522598743E-1,2.857646942E-1,8.989514696E-1
1.470486985E0,-2.832317352E-2,8.205196857E-1,3.066186905E-1,8.763959027E-1
1.478452073E0,-4.000014067E-2,8.056704998E-1,3.280124664E-1,8.708025859E-1
1.486325608E0,-6.395417452E-2,7.620682716E-1,3.266773224E-1,8.315986171E-1
1.494260178E0,-4.312047362E-2,7.077264786E-1,3.191118240E-1,7.775400311E-1
1.502133713E0,-5.408269167E-2,6.628575325E-1,3.583297729E-1,7.554503770E-1
1.510037766E0,-6.562119722E-2,5.831160545E-1,4.207487106E-1,7.220525965E-1
1.518002854E0,-8.263209462E-2,5.141522884E-1,4.532117844E-1,6.903488685E-1
1.525876389E0,-9.035092592E-2,4.507610798E-1,5.329198837E-1,7.038127900E-1
1.533810959E0,-1.151601672E-1,3.763858080E-1,5.929517746E-1,7.117021481E-1
1.541715012E0,-1.313666701E-1,3.050752878E-1,5.920572281E-1,6.788666250E-1
1.549649582E0,-1.312982738E-1,2.059782743E-1,6.267347336E-1,6.726534862E-1
1.557584153E0,-1.390827894E-1,1.242271662E-1,6.323442459E-1,6.592690319E-1
1.565488205E0,-1.645290554E-1,3.738188744E-2,6.638727188E-1,6.849775196E-1
1.573422776E0,-1.568923593E-1,-7.922971249E-2,6.715030670E-1,6.941245773E-1
1.581296311E0,-1.807801425E-1,-1.665879488E-1,7.030620575E-1,7.448014912E-1
1.589200364E0,-2.051794231E-1,-2.700355053E-1,7.347431183E-1,8.092374309E-1
1.597195969E0,-1.893912256E-1,-3.779635429E-1,7.809753418E-1,8.880585345E-1
1.605069504E0,-2.269575596E-1,-4.992316961E-1,8.300189972E-1,9.948233793E-1
1.613004075E0,-2.435236573E-1,-6.197376251E-1,8.867492676E-1,1.108919636E0
1.620908127E0,-2.535229623E-1,-7.353461981E-1,9.464244843E-1,1.225041725E0
1.628873215E0,-2.832441628E-1,-8.754777908E-1,1.030938148E0,1.381854581E0
1.636807786E0,-2.970505059E-1,-1.009351254E0,1.080257416E0,1.507973820E0
1.644681321E0,-2.991546392E-1,-1.135969400E0,1.140390396E0,1.637195844E0
1.652676926E0,-3.277661502E-1,-1.265709400E0,1.175448418E0,1.758160948E0
1.660580979E0,-3.498199582E-1,-1.404669285E0,1.218971252E0,1.892448339E0
1.668423996E0,-3.409054875E-1,-1.564227819E0,1.288047791E0,2.054773061E0
1.676419602E0,-3.901231885E-1,-1.683845043E0,1.346748352E0,2.191178075E0
1.684323655E0,-3.966536522E-1,-1.830108166E0,1.347329140E0,2.306929958E0
1.692258225E0,-3.936729431E-1,-1.958585501E0,1.328225136E0,2.399003452E0
1.700131760E0,-4.244620800E-1,-2.094951153E0,1.282320023E0,2.492655819E0
1.707974778E0,-4.406733513E-1,-2.250708103E0,1.233633041E0,2.604175580E0
1.715970383E0,-4.689952135E-1,-2.374531507E0,1.256438255E0,2.727085162E0
1.723874436E0,-4.687555730E-1,-2.526392698E0,1.278987885E0,2.870226796E0
1.731809006E0,-4.901668429E-1,-2.644886255E0,1.327594757E0,2.999699098E0
1.739682541E0,-4.997094572E-1,-2.810184717E0,1.344905853E0,3.155252675E0
1.747586594E0,-5.185891390E-1,-2.924590111E0,1.311651230E0,3.246935626E0
1.755551682E0,-5.468173027E-1,-3.079063892E0,1.299895287E0,3.386646036E0
1.763455735E0,-5.365893245E-1,-3.223444462E0,1.285501480E0,3.511557540E0
1.771420823E0,-5.691083074E-1,-3.342877865E0,1.318667412E0,3.638351334E0
1.779294358E0,-5.754466653E-1,-3.498517513E0,1.327733994E0,3.785979558E0
1.787228928E0,-6.244024634E-1,-3.618016481E0,1.326600075E0,3.903817293E0
1.795163498E0,-6.108162999E-1,-3.740168095E0,1.296534538E0,4.005365868E0
1.803067551E0,-6.300866604E-1,-3.860284328E0,1.249078751E0,4.105971508E0
1.811002121E0,-6.510228515E-1,-3.980316162E0,1.174481392E0,4.200732560E0
1.818875657E0,-6.717773080E-1,-4.087687492E0,1.099399567E0,4.285925010E0
1.826749192E0,-6.848211288E-1,-4.195734978E0,1.030164719E0,4.374289809E0
1.834683762E0,-6.973404884E-1,-4.287893295E0,9.744625092E-1,4.452178102E0
1.842557297E0,-7.046633959E-1,-4.399038315E0,8.768968582E-1,4.540598716E0
1.850491868E0,-7.135305405E-1,-4.478274345E0,7.850751877E-1,4.602217943E0
1.858395920E0,-7.433656454E-1,-4.571526527E0,7.181663513E-1,4.686919050E0
1.866269455E0,-7.524691820E-1,-4.661470413E0,6.448888779E-1,4.765647694E0
1.874204026E0,-7.551171184E-1,-4.740988255E0,5.983791351E-1,4.837895109E0
1.882077561E0,-7.688426375E-1,-4.824359894E0,6.103067398E-1,4.923214570E0
1.890042649E0,-7.746996880E-1,-4.892966747E0,5.763053894E-1,4.987325044E0
1.897946702E0,-7.751371861E-1,-4.965201855E0,5.350933075E-1,5.053750287E0
1.905850754E0,-7.887152433E-1,-5.035045147E0,5.378580093E-1,5.124748053E0
1.913754807E0,-7.942559719E-1,-5.100250721E0,4.752149582E-1,5.183553725E0
1.921628342E0,-7.990385294E-1,-5.159372330E0,4.158878326E-1,5.237418075E0
1.929562912E0,-8.105206490E-1,-5.228580952E0,3.666467667E-1,5.303718728E0
1.937436448E0,-8.190484047E-1,-5.245129108E0,2.682380676E-1,5.315465296E0
1.945401536E0,-7.958152294E-1,-5.267425537E0,1.702003479E-1,5.329921372E0
1.953336106E0,-8.099364042E-1,-5.305296898E0,2.699661255E-2,5.366833421E0
1.961209641E0,-8.165097237E-1,-5.334262848E0,-6.012439728E-2,5.396727082E0
1.969144211E0,-8.109555244E-1,-5.335852623E0,-1.531858444E-1,5.399299768E0
1.977017746E0,-8.103392720E-1,-5.336375713E0,-2.354965210E-1,5.402685823E0
1.984921799E0,-7.976748347E-1,-5.379080296E0,-2.831125259E-1,5.445267915E0
1.992886887E0,-7.944544554E-1,-5.443127632E0,-3.053436279E-1,5.509267740E0
2.000790940E0,-7.933875918E-1,-5.425695896E0,-3.104715347E-1,5.492179203E0
2.008725510E0,-7.871698141E-1,-5.455217361E0,-3.002414703E-1,5.519889285E0
2.016599045E0,-7.997902036E-1,-5.469613075E0,-3.081321716E-1,5.536359544E0
2.024472580E0,-8.026254177E-1,-5.481084824E0,-3.160562515E-1,5.548548455E0
2.032437668E0,-8.149670362E-1,-5.515257835E0,-2.993116379E-1,5.583173624E0
2.040341721E0,-7.934408188E-1,-5.519631386E0,-2.781610489E-1,5.583301222E0
2.048306809E0,-7.760977745E-1,-5.534211159E0,-2.757720947E-1,5.595164980E0
2.056180344E0,-7.822659612E-1,-5.542115211E0,-2.850322723E-1,5.604304100E0
2.064023362E0,-7.612353563E-1,-5.529619217E0,-2.828712463E-1,5.588934075E0
2.071988450E0,-7.685956955E-1,-5.527415276E0,-3.114213943E-1,5.589279225E0
2.079861985E0,-7.542535067E-1,-5.508417130E0,-3.279294968E-1,5.569478915E0
2.087796555E0,-7.343537807E-1,-5.488121033E0,-3.617382050E-1,5.548837939E0
2.095670090E0,-7.377155423E-1,-5.467546463E0,-3.620386124E-1,5.528956547E0
2.103635178E0,-7.403743267E-1,-5.456872940E0,-3.692064285E-1,5.519232720E0
2.111569748E0,-7.347611189E-1,-5.446413994E0,-3.508605957E-1,5.506941297E0
2.119443284E0,-7.262631655E-1,-5.410224438E0,-2.960224152E-1,5.466773813E0
2.127377854E0,-7.149406075E-1,-5.390654564E0,-2.408809662E-1,5.443190272E0
2.135281907E0,-7.098837495E-1,-5.369879246E0,-1.786708832E-1,5.419544385E0
2.143185959E0,-7.017389536E-1,-5.337542534E0,-9.657764435E-2,5.384340730E0
2.151151047E0,-6.928280592E-1,-5.300440311E0,-2.581310272E-2,5.345591130E0
2.159055100E0,-6.971776485E-1,-5.266869068E0,3.556442261E-2,5.312930574E0
2.167050705E0,-6.958717108E-1,-5.213855743E0,1.024837494E-1,5.261086586E0
2.174924241E0,-6.746060848E-1,-5.176107407E0,1.961288452E-1,5.223566576E0
2.182797776E0,-6.809627414E-1,-5.134377480E0,2.974786758E-1,5.187873931E0
2.190793381E0,-6.623739004E-1,-5.060026646E0,3.780288696E-1,5.117178389E0
2.198666916E0,-6.474499106E-1,-5.013371944E0,4.285755157E-1,5.073141691E0
2.206632004E0,-6.361213923E-1,-4.924516201E0,4.491405487E-1,4.985703308E0
2.214475022E0,-6.239983439E-1,-4.849363804E0,4.378547668E-1,4.908912306E0
2.222379075E0,-6.062522531E-1,-4.758117199E0,4.528255463E-1,4.817911586E0
2.230344162E0,-5.948435664E-1,-4.662312031E0,4.573640823E-1,4.722306030E0
2.238217698E0,-5.922952890E-1,-4.569198608E0,4.932146072E-1,4.633751211E0
2.246152268E0,-5.839893818E-1,-4.472887993E0,5.458507538E-1,4.543756556E0
2.254025803E0,-5.796702504E-1,-4.375389099E0,6.130008698E-1,4.455986696E0
2.261990891E0,-5.699467063E-1,-4.278364182E0,7.288799286E-1,4.377271441E0
2.269925461E0,-5.642707348E-1,-4.164360046E0,8.049049377E-1,4.278804508E0
2.277798996E0,-5.420440435E-1,-4.057670116E0,9.143314362E-1,4.194579895E0
2.285764084E0,-5.365990400E-1,-3.958412647E0,1.009268761E0,4.120144736E0
2.293668137E0,-5.188827515E-1,-3.838026524E0,1.026978493E0,4.006790702E0
2.301511155E0,-5.154074430E-1,-3.708124161E0,1.073262215E0,3.894575895E0
2.309476243E0,-4.976841807E-1,-3.611190796E0,1.097715378E0,3.807015571E0
2.317319260E0,-4.970082045E-1,-3.479609728E0,1.121798515E0,3.689597935E0
2.325284348E0,-4.822195172E-1,-3.355632305E0,1.219987869E0,3.602939665E0
2.333157883E0,-4.768313169E-1,-3.228212357E0,1.241230011E0,3.491328553E0
2.341122971E0,-4.326320291E-1,-3.017704487E0,1.273661613E0,3.303925657E0
2.349057541E0,-4.236280918E-1,-2.848199368E0,1.264668465E0,3.145009813E0
2.356961594E0,-4.093613327E-1,-2.689980030E0,1.239350319E0,2.989909443E0
2.364896164E0,-4.074054360E-1,-2.560933352E0,1.197059631E0,2.856100590E0
2.372800217E0,-4.032160640E-1,-2.428718805E0,1.180819511E0,2.730493169E0
2.380704270E0,-3.778797984E-1,-2.282555103E0,1.176318169E0,2.595491355E0
2.388669358E0,-3.766057789E-1,-2.138600349E0,1.202687263E0,2.482317470E0
2.396512375E0,-3.636171818E-1,-2.017058134E0,1.209646225E0,2.379912805E0
2.404477463E0,-3.367005289E-1,-1.889692187E0,1.245027542E0,2.287880545E0
2.412320481E0,-3.439081609E-1,-1.743688822E0,1.284852028E0,2.193072790E0
2.420316086E0,-3.300996721E-1,-1.609688163E0,1.309855461E0,2.101376478E0
2.428250657E0,-3.331865072E-1,-1.458892107E0,1.315307617E0,1.992338715E0
2.436154709E0,-3.006830513E-1,-1.344939947E0,1.327295303E0,1.913370477E0
2.444089280E0,-2.925279737E-1,-1.199322939E0,1.319473267E0,1.806919431E0
2.451962815E0,-2.845961154E-1,-1.053347111E0,1.303728104E0,1.700071191E0
2.459836350E0,-2.532198131E-1,-8.892345428E-1,1.282210350E0,1.580797814E0
2.467770920E0,-2.318697274E-1,-7.676098347E-1,1.231055260E0,1.469178506E0
2.475644455E0,-2.133935988E-1,-6.354658604E-1,1.173850060E0,1.351768342E0
2.483579026E0,-2.120189071E-1,-5.043450594E-1,1.098550797E0,1.227244804E0
2.491452561E0,-1.941071153E-1,-3.466835022E-1,1.014823914E0,1.089832372E0
2.499417649E0,-1.912189424E-1,-2.397162914E-1,9.603462219E-1,1.008113808E0
2.507382737E0,-1.644783914E-1,-9.561538696E-2,8.950242996E-1,9.150212786E-1
2.515286789E0,-1.335049570E-1,3.896462917E-2,8.540010452E-1,8.652511780E-1
2.523251877E0,-1.102457643E-1,1.565479040E-1,8.322687149E-1,8.540097122E-1
2.531094895E0,-1.136603653E-1,2.612503767E-1,8.276662827E-1,8.753296027E-1
2.538968430E0,-8.405777812E-2,3.516179323E-1,7.894706726E-1,8.683114783E-1
2.546964036E0,-7.179296017E-2,4.608019590E-1,7.916650772E-1,9.188178650E-1
2.554837571E0,-4.795819521E-2,5.490182638E-1,7.720956802E-1,9.486057041E-1
2.562772141E0,-4.616677761E-2,6.488798857E-1,7.447729111E-1,9.888696408E-1
2.570645676E0,-1.379263401E-2,7.528680563E-1,6.998949051E-1,1.028033767E0
2.578610764E0,-1.309263706E-2,8.229013681E-1,6.996393204E-1,1.080200564E0
2.586545334E0,6.214797497E-3,9.046721458E-1,6.984558105E-1,1.142939559E0
2.594449387E0,3.692352772E-2,9.665079117E-1,6.841058731E-1,1.184694786E0
2.602383957E0,4.579514265E-2,1.023274422E0,6.207313538E-1,1.197704117E0
2.610257493E0,6.354850531E-2,1.106907606E0,5.652017593E-1,1.244482177E0
2.618161545E0,6.620347500E-2,1.149096489E0,4.985980988E-1,1.254354697E0
2.626096116E0,8.491271734E-2,1.224262714E0,4.137229919E-1,1.295066051E0
2.633969651E0,9.531784058E-2,1.244591475E0,4.225063324E-1,1.317803107E0
2.641904221E0,9.341359138E-2,1.281284809E0,4.153518677E-1,1.350160744E0
2.649777756E0,9.840863943E-2,1.327501893E0,3.947257996E-1,1.388435808E0
2.657742844E0,1.019937396E-1,1.311441183E0,3.813190460E-1,1.369556466E0
2.665707932E0,1.020294428E-1,1.318786621E0,3.852987289E-1,1.377702170E0
2.673611985E0,1.374124885E-1,1.320578337E0,3.826789856E-1,1.381757049E0
2.681577073E0,1.125312746E-1,1.318236589E0,3.970994949E-1,1.381339568E0
2.689420090E0,1.154595315E-1,1.301351070E0,4.194679260E-1,1.372151177E0
2.697385178E0,1.246522963E-1,1.293723226E0,4.306049347E-1,1.369189026E0
2.705319748E0,1.160730422E-1,1.251163483E0,4.732913971E-1,1.342716559E0
2.713193284E0,1.092127860E-1,1.223420382E0,5.050821304E-1,1.328078620E0
2.721158371E0,1.016128361E-1,1.169779301E0,5.379819870E-1,1.291562387E0
2.729062424E0,8.595785499E-2,1.143286705E0,5.474834442E-1,1.270524051E0
2.737027512E0,9.370377660E-2,1.085971832E0,5.581941605E-1,1.224620733E0
2.744962082E0,7.415828109E-2,1.017463446E0,5.480499268E-1,1.158054418E0
2.752866135E0,7.535919547E-2,9.620175362E-1,5.490684509E-1,1.110240025E0
2.760800705E0,7.121399045E-2,8.904051781E-1,5.420351028E-1,1.044842029E0
2.768674241E0,3.745162487E-2,8.346271515E-1,5.457601547E-1,9.979274787E-1
2.776547776E0,2.511864901E-2,7.444546223E-1,5.921754837E-1,9.515857474E-1
2.784512864E0,1.434534788E-2,6.549549103E-1,6.427898407E-1,9.177965476E-1
2.792386399E0,2.661257982E-3,5.524762869E-1,6.877079010E-1,8.821447086E-1
2.800351487E0,-1.667919755E-2,4.682580233E-1,7.205114365E-1,8.594652419E-1
2.808225022E0,-7.010954618E-2,3.457504511E-1,7.768535614E-1,8.532058244E-1
2.816068039E0,-7.857459784E-2,2.431715727E-1,8.306989670E-1,8.691186081E-1
2.824063645E0,-1.090040803E-1,1.296294928E-1,8.941841125E-1,9.100829204E-1
2.831967698E0,-1.255520284E-1,1.018822193E-2,9.531068802E-1,9.613947351E-1
2.839902268E0,-1.473222375E-1,-8.943617344E-2,1.009851456E0,1.024452358E0
2.847775803E0,-1.647276282E-1,-2.144397497E-1,1.071779251E0,1.105364357E0
2.855679856E0,-1.775419116E-1,-3.708715439E-1,1.093721390E0,1.168457663E0
2.863614426E0,-2.193716764E-1,-4.633560181E-1,1.137582779E0,1.247764926E0
2.871487961E0,-2.468976974E-1,-5.877753496E-1,1.132051468E0,1.299222406E0
2.879453049E0,-2.579412162E-1,-7.267919779E-1,1.120401382E0,1.360168926E0
2.887357102E0,-2.911815047E-1,-8.669472933E-1,1.126272202E0,1.450818166E0
2.895322190E0,-3.244920075E-1,-1.008460164E0,1.162343979E0,1.572682578E0
2.903256760E0,-3.196097910E-1,-1.143681645E0,1.204546928E0,1.691476109E0
2.911130295E0,-3.764465451E-1,-1.297729254E0,1.229174614E0,1.826659095E0
2.919125901E0,-3.951753974E-1,-1.427768946E0,1.255419731E0,1.941846147E0
2.927029953E0,-4.167733192E-1,-1.571449041E0,1.273704529E0,2.065302718E0
2.934872971E0,-4.358608723E-1,-1.722941160E0,1.291511536E0,2.196930356E0
2.942838059E0,-4.670807123E-1,-1.862046838E0,1.270524979E0,2.302089603E0
2.950742112E0,-4.932921529E-1,-2.009913921E0,1.275476456E0,2.431035028E0
2.958676682E0,-5.072746873E-1,-2.137306452E0,1.268123627E0,2.536443181E0
2.966550217E0,-5.332302451E-1,-2.299479485E0,1.298788071E0,2.694214328E0
2.974423752E0,-5.567605495E-1,-2.439683676E0,1.319581032E0,2.829016233E0
2.982419358E0,-5.636235476E-1,-2.576569557E0,1.318614006E0,2.948749749E0
2.990323411E0,-5.944873691E-1,-2.720823765E0,1.307839394E0,3.076806960E0
2.998257981E0,-5.938746333E-1,-2.833364487E0,1.275240898E0,3.163365414E0
3.006131516E0,-6.291491985E-1,-2.967797279E0,1.180184364E0,3.255224192E0
3.014005051E0,-6.448342800E-1,-3.098251343E0,1.111067772E0,3.354019115E0
3.022000657E0,-6.511753201E-1,-3.219014168E0,1.063220024E0,3.452031044E0
3.029904709E0,-6.598452330E-1,-3.338481665E0,1.019725800E0,3.552561930E0
3.037839280E0,-6.493662000E-1,-3.475104809E0,9.900064468E-1,3.671259002E0
3.045712815E0,-6.531506181E-1,-3.586650372E0,9.693441391E-1,3.772306281E0
3.053677903E0,-6.878094077E-1,-3.676209450E0,9.142951965E-1,3.850134206E0
3.061612473E0,-6.867558956E-1,-3.787637711E0,8.517141342E-1,3.942492873E0
3.069486008E0,-6.903271675E-1,-3.912224293E0,8.071308136E-1,4.053826669E0
3.077420578E0,-6.865311861E-1,-4.020824432E0,7.659454346E-1,4.150304398E0
3.085294114E0,-7.164540887E-1,-4.113646984E0,7.549724579E-1,4.243274842E0
3.093167649E0,-7.144585848E-1,-4.199238777E0,6.864833832E-1,4.314547116E0
3.101132737E0,-7.064095140E-1,-4.286045074E0,6.293277740E-1,4.389219775E0
3.109036789E0,-7.185951471E-1,-4.361886024E0,5.807447433E-1,4.458664950E0
3.116971360E0,-7.179130316E-1,-4.429179192E0,4.919891357E-1,4.513876465E0
3.124875412E0,-7.264233828E-1,-4.499269009E0,3.817138672E-1,4.573490791E0
3.132748948E0,-7.057012916E-1,-4.565105438E0,3.256740570E-1,4.630795349E0
3.140683518E0,-7.204267383E-1,-4.618645191E0,2.547178268E-1,4.681429190E0
3.148557053E0,-6.959893107E-1,-4.671504498E0,1.446180344E-1,4.725279861E0
3.156491623E0,-6.898616552E-1,-4.731240749E0,5.676555634E-2,4.781607518E0
3.164365159E0,-7.022256851E-1,-4.776410103E0,3.806114197E-3,4.827756091E0
3.172238694E0,-6.780092716E-1,-4.803120136E0,-4.126644135E-2,4.850913577E0
3.180203782E0,-6.887575984E-1,-4.827828407E0,-1.098566055E-1,4.877948609E0
3.188077317E0,-6.776700020E-1,-4.851862431E0,-1.695709229E-1,4.901893509E0
3.195981369E0,-6.973941922E-1,-4.896646976E0,-1.941862106E-1,4.949870560E0
3.203885422E0,-6.641218066E-1,-4.923344135E0,-2.390365601E-1,4.973682109E0
3.211881028E0,-6.820361614E-1,-4.995934486E0,-2.574138641E-1,5.048841116E0
3.219815598E0,-6.748535633E-1,-4.979175091E0,-3.148746490E-1,5.034556382E0
3.227719651E0,-6.658918262E-1,-4.982772350E0,-3.705711365E-1,5.040709790E0
3.235654221E0,-6.803674698E-1,-5.021324158E0,-3.963336945E-1,5.082683995E0
3.243558274E0,-6.560385227E-1,-5.044475555E0,-4.401254654E-1,5.105960301E0
3.251401291E0,-6.764346361E-1,-5.038855553E0,-5.025854111E-1,5.108837558E0
3.259366379E0,-6.673318148E-1,-5.053458691E0,-5.186557770E-1,5.123649120E0
3.267239914E0,-6.624225378E-1,-5.074080467E0,-5.601224899E-1,5.147701760E0
3.275174485E0,-6.492089033E-1,-5.079812050E0,-5.751113892E-1,5.153320849E0
3.283048020E0,-6.497372389E-1,-5.098423958E0,-5.989351273E-1,5.174438000E0
3.291013108E0,-6.495503783E-1,-5.089178085E0,-5.981111526E-1,5.165209214E0
3.298947678E0,-6.386285424E-1,-5.095207214E0,-5.760765076E-1,5.167286243E0
3.306912766E0,-6.530611515E-1,-5.091564178E0,-5.705347061E-1,5.164883784E0
3.314847336E0,-6.400157213E-1,-5.086393833E0,-5.581560135E-1,5.156797503E0
3.322720871E0,-6.549898386E-1,-5.074029922E0,-5.286779404E-1,5.143373573E0
3.330563889E0,-6.261339784E-1,-5.064277649E0,-4.843692780E-1,5.125774621E0
3.338559494E0,-6.393386722E-1,-5.055089474E0,-4.571886063E-1,5.115828862E0
3.346463547E0,-6.301198006E-1,-5.040992737E0,-3.960714340E-1,5.095638460E0
3.354428635E0,-6.488236189E-1,-5.050940990E0,-3.559322357E-1,5.104866769E0
3.362302170E0,-6.424931288E-1,-5.011239529E0,-3.231058121E-1,5.062580014E0
3.370236741E0,-6.522485614E-1,-4.986592293E0,-2.797288895E-1,5.036842179E0
3.378171311E0,-6.276624203E-1,-4.956638813E0,-2.286033630E-1,5.001448584E0
3.386075364E0,-6.215427518E-1,-4.921079159E0,-2.200174332E-1,4.965052180E0
3.394009934E0,-6.197019219E-1,-4.863957405E0,-1.817121506E-1,4.906641562E0
3.401913987E0,-6.195413470E-1,-4.834578514E0,-1.594333649E-1,4.876720198E0
3.409787522E0,-6.305273771E-1,-4.774827957E0,-1.173639297E-1,4.817709112E0
3.417722092E0,-6.193350554E-1,-4.717105865E0,-5.487728119E-2,4.757906596E0
3.425626145E0,-6.147586703E-1,-4.687441826E0,8.913040161E-3,4.727591198E0
3.433560715E0,-6.310938597E-1,-4.627134800E0,1.216468811E-1,4.671557971E0
3.441434250E0,-5.943406820E-1,-4.544231892E0,1.856489182E-1,4.586692692E0
3.449307786E0,-6.217678785E-1,-4.468565464E0,2.852468491E-1,4.520623670E0
3.457303391E0,-6.126600504E-1,-4.402162552E0,3.431730270E-1,4.457819556E0
3.465176926E0,-5.911172032E-1,-4.318870544E0,4.178867340E-1,4.379119963E0
3.473142014E0,-5.929954052E-1,-4.218384743E0,4.879388809E-1,4.287714746E0
3.481015549E0,-5.752825141E-1,-4.130497456E0,5.412197113E-1,4.205339223E0
3.488889084E0,-5.572270155E-1,-4.026626587E0,5.953578949E-1,4.108366420E0
3.496854172E0,-5.506530404E-1,-3.919760704E0,6.310501099E-1,4.008237392E0
3.504758225E0,-5.298043489E-1,-3.809218645E0,6.919698715E-1,3.907641442E0
3.512692795E0,-5.139172077E-1,-3.695246696E0,7.787752151E-1,3.811226821E0
3.520596848E0,-5.146882534E-1,-3.564789772E0,8.146867752E-1,3.692742160E0
3.528561936E0,-5.083652139E-1,-3.467483044E0,8.479518890E-1,3.605675562E0
3.536496506E0,-5.021096468E-1,-3.329620600E0,9.046287537E-1,3.486666118E0
3.544400559E0,-4.700369835E-1,-3.199069023E0,9.276542664E-1,3.363854904E0
3.552365647E0,-4.790770113E-1,-3.086047649E0,9.673585892E-1,3.269401706E0
3.560239182E0,-4.544517994E-1,-2.968516827E0,1.004254341E0,3.166566811E0
3.568112717E0,-4.254949391E-1,-2.836450815E0,1.081890106E0,3.065450272E0
3.576047287E0,-4.009492695E-1,-2.522325039E0,1.137127876E0,2.795700936E0
3.583951340E0,-3.735238314E-1,-2.327295542E0,1.168436050E0,2.630792161E0
3.591885911E0,-3.558538556E-1,-2.158897400E0,1.236958504E0,2.513470965E0
3.599789963E0,-3.323251009E-1,-2.029193878E0,1.277140617E0,2.420569339E0
3.607694016E0,-3.185788691E-1,-1.890531421E0,1.317057610E0,2.325992755E0
3.615628586E0,-3.049210012E-1,-1.747604012E0,1.301623344E0,2.200299964E0
3.623532639E0,-2.863092124E-1,-1.609466076E0,1.317037582E0,2.099271780E0
3.631497727E0,-2.560129762E-1,-1.460346222E0,1.312955856E0,1.980405719E0
3.639401780E0,-2.378726900E-1,-1.327986479E0,1.308565140E0,1.879487757E0
3.647305832E0,-2.054740191E-1,-1.190498114E0,1.308482170E0,1.780907331E0
3.655301438E0,-1.995639503E-1,-1.039388537E0,1.300786972E0,1.676961851E0
3.663144455E0,-1.720784605E-1,-8.928780556E-1,1.299655914E0,1.586173923E0
3.671109543E0,-1.616922617E-1,-7.469466925E-1,1.261795044E0,1.475195066E0
3.679013596E0,-1.539455056E-1,-5.931980610E-1,1.232756615E0,1.376688792E0
3.686978684E0,-1.298358142E-1,-4.637957811E-1,1.226668358E0,1.317831220E0
3.694913254E0,-9.856304526E-2,-3.160594702E-1,1.195901871E0,1.240882568E0
3.702817307E0,-8.449643850E-2,-1.777689457E-1,1.197163582E0,1.213236204E0
3.710751877E0,-6.361278892E-2,-5.177617073E-2,1.216297150E0,1.219059521E0
3.718625412E0,-4.282873869E-2,7.881259918E-2,1.217338562E0,1.220638727E0
3.726498948E0,-2.985402942E-2,1.756734848E-1,1.206812859E0,1.219897419E0
3.734464036E0,-1.239109039E-2,3.320610523E-1,1.189885139E0,1.235412776E0
3.742337571E0,-1.485943794E-4,4.398021698E-1,1.178321838E0,1.257723469E0
3.750272141E0,1.633399725E-2,5.661624670E-1,1.121170044E0,1.256116637E0
3.758176194E0,4.202419519E-2,6.726461649E-1,1.057168961E0,1.253724494E0
3.766049729E0,2.898746729E-2,7.895017862E-1,1.009915352E0,1.282217751E0
3.773984299E0,7.032436132E-2,9.134403467E-1,9.478797913E-1,1.318254483E0
3.781888352E0,7.035440207E-2,1.021410823E0,9.118947983E-1,1.371051397E0
3.789822922E0,7.242870331E-2,1.093844771E0,8.586349487E-1,1.392478465E0
3.797696457E0,1.095604897E-1,1.189398170E0,8.402338028E-1,1.460364458E0
3.805600510E0,1.218546033E-1,1.282059073E0,8.255214691E-1,1.529709027E0
3.813565598E0,1.168904901E-1,1.384627581E0,7.907285690E-1,1.598783473E0
3.821469651E0,1.089155078E-1,1.437299252E0,7.397270203E-1,1.620150546E0
3.829434739E0,1.218392253E-1,1.515643597E0,6.943874359E-1,1.671584344E0
3.837308274E0,1.241535544E-1,1.575769663E0,6.782350540E-1,1.720019455E0
3.845242844E0,1.423637867E-1,1.627572060E0,7.056484222E-1,1.779662314E0
3.853177414E0,1.479842067E-1,1.663149118E0,7.005577087E-1,1.810730631E0
3.861081467E0,1.383640766E-1,1.698589087E0,7.000513077E-1,1.842395543E0
3.869016037E0,1.377240419E-1,1.738247633E0,6.928272247E-1,1.876294835E0
3.876920090E0,1.438145041E-1,1.765784025E0,6.670331955E-1,1.893042292E0
3.884793625E0,1.368036866E-1,1.783912659E0,6.529226303E-1,1.904564933E0
3.892758713E0,1.360406280E-1,1.772737980E0,6.391296387E-1,1.889336839E0
3.900662766E0,1.515315771E-1,1.797439098E0,6.043233871E-1,1.902355353E0
3.908597336E0,1.423910856E-1,1.798712015E0,5.956716537E-1,1.900122326E0
3.916501389E0,1.304479241E-1,1.780759573E0,5.683965683E-1,1.873818555E0
3.924405442E0,1.513525844E-1,1.757720232E0,5.559291840E-1,1.849741949E0
3.932340012E0,1.234437823E-1,1.740034819E0,5.696763992E-1,1.835072407E0
3.940213547E0,9.966444969E-2,1.705525398E0,5.696601868E-1,1.800906054E0
3.948148118E0,9.671545029E-2,1.695085764E0,5.799379349E-1,1.794156524E0
3.956052170E0,8.836251497E-2,1.630264521E0,5.855331421E-1,1.734479577E0
3.963956223E0,9.167736769E-2,1.582833529E0,5.945758820E-1,1.693306587E0
3.971951828E0,5.131351948E-2,1.533408642E0,6.429395676E-1,1.663534318E0
3.979794846E0,3.905153275E-2,1.449836493E0,6.944255829E-1,1.608035375E0
3.987729416E0,4.531353712E-2,1.410416842E0,7.329444885E-1,1.590137292E0
3.995633469E0,3.667336702E-2,1.318938017E0,7.703981400E-1,1.527892576E0
4.003598557E0,1.554423571E-2,1.250980377E0,8.161163330E-1,1.493733375E0
4.011563645E0,-1.564002037E-2,1.164283156E0,8.369607925E-1,1.433981606E0
4.019467698E0,-1.617962122E-2,1.072477460E0,8.663291931E-1,1.378766098E0
4.027402268E0,-4.996436834E-2,9.021445513E-1,8.806695938E-1,1.261721111E0
4.035306321E0,-6.193542480E-2,9.093271494E-1,9.333429337E-1,1.304546240E0
4.043210373E0,-5.703842640E-2,7.867580652E-1,9.445648193E-1,1.230627618E0
4.051175461E0,-8.338522911E-2,6.964279413E-1,9.987125397E-1,1.220406371E0
4.059079514E0,-1.026232839E-1,5.669878721E-1,1.014613152E0,1.166810453E0
4.067044602E0,-1.033255756E-1,4.857584238E-1,1.047081947E0,1.158886545E0
4.074887619E0,-1.476040483E-1,3.410110474E-1,1.070118904E0,1.132797404E0
4.082852707E0,-1.421190798E-1,2.390468121E-1,1.088843346E0,1.123797599E0
4.090756760E0,-1.493374109E-1,1.144859791E-1,1.131384850E0,1.146926493E0
4.098630295E0,-1.901924014E-1,-2.591693401E-2,1.143791199E0,1.159785818E0
4.106564866E0,-1.906051636E-1,-1.265484095E-1,1.211936951E0,1.233343424E0
4.114438401E0,-2.127946913E-1,-2.749642134E-1,1.232743263E0,1.280836778E0
4.122342453E0,-2.544275224E-1,-4.158567190E-1,1.273848534E0,1.363950242E0
4.130307541E0,-2.582303882E-1,-5.415102243E-1,1.301513672E0,1.433127383E0
4.138181077E0,-2.722079456E-1,-6.707030535E-1,1.363815308E0,1.543998687E0
4.146115647E0,-2.933483720E-1,-8.226729631E-1,1.372614861E0,1.626934426E0
4.153989182E0,-3.194695413E-1,-9.494421482E-1,1.373175621E0,1.699738941E0
4.161954270E0,-3.286595643E-1,-1.096909761E0,1.337112427E0,1.760425453E0
4.169919358E0,-3.287646174E-1,-1.224926949E0,1.343218803E0,1.847368116E0
4.177853928E0,-3.720240295E-1,-1.367994070E0,1.341681480E0,1.951901342E0
4.185788498E0,-3.865919709E-1,-1.502231956E0,1.337308884E0,2.048059875E0
4.193662034E0,-3.702116013E-1,-1.642859936E0,1.342059135E0,2.153408489E0
4.201535569E0,-4.158101976E-1,-1.786118269E0,1.312948227E0,2.255426709E0
4.209470139E0,-4.206885099E-1,-1.925996661E0,1.278694153E0,2.349787373E0
4.217374192E0,-4.303582907E-1,-2.056945562E0,1.244140625E0,2.442154622E0
4.225308762E0,-4.614343345E-1,-2.185924292E0,1.235651016E0,2.553041341E0
4.233182297E0,-4.566616416E-1,-2.322229385E0,1.207741737E0,2.657052743E0
4.241055832E0,-4.803836048E-1,-2.443001032E0,1.186701775E0,2.758130445E0
4.249051438E0,-4.944632053E-1,-2.588204622E0,1.155821800E0,2.877363561E0
4.256924973E0,-5.034635067E-1,-2.701781511E0,1.115053177E0,2.965879705E0
4.264890061E0,-5.265123248E-1,-2.828268290E0,1.042747498E0,3.060006387E0
4.272763596E0,-5.302186012E-1,-2.956282616E0,1.001154900E0,3.165920056E0
4.280667649E0,-5.314002633E-1,-3.079309702E0,9.421586990E-1,3.263770441E0
4.288571702E0,-5.419803262E-1,-3.194479465E0,8.874578476E-1,3.359467690E0
4.296445237E0,-5.399470329E-1,-3.286906242E0,8.389987946E-1,3.434998460E0
4.304379807E0,-5.709751844E-1,-3.396588802E0,7.705764771E-1,3.529393186E0
4.312283860E0,-5.754465461E-1,-3.512121916E0,6.917953491E-1,3.625564768E0
4.320248948E0,-5.842620134E-1,-3.602512121E0,6.165504456E-1,3.701295737E0
4.328214036E0,-5.951519012E-1,-3.709849358E0,5.473814011E-1,3.796948043E0
4.336118088E0,-6.093544960E-1,-3.790712833E0,4.849901199E-1,3.869887867E0
4.344052659E0,-6.028045416E-1,-3.861745834E0,4.069070816E-1,3.929634535E0
4.351956711E0,-6.138421297E-1,-3.916649103E0,3.470134735E-1,3.979618161E0
4.359860764E0,-5.981877446E-1,-4.021448612E0,2.718048096E-1,4.074770591E0
4.367825852E0,-6.296463013E-1,-4.076801300E0,2.225217819E-1,4.131135346E0
4.375729905E0,-6.175909042E-1,-4.147225380E0,1.708421707E-1,4.196437051E0
4.383664475E0,-6.309975982E-1,-4.212759018E0,1.372938156E-1,4.261965052E0
4.391568528E0,-6.244888306E-1,-4.256544113E0,4.092121124E-2,4.302305037E0
4.399533616E0,-6.220988631E-1,-4.313660622E0,-3.485870361E-2,4.358427478E0
4.407468186E0,-6.116874218E-1,-4.359663010E0,-1.214790344E-1,4.404041350E0
4.415341721E0,-6.220541000E-1,-4.385261059E0,-2.213954926E-1,4.434690724E0
4.423276291E0,-6.197870970E-1,-4.419008255E0,-2.845163345E-1,4.471321902E0
4.431149827E0,-6.077010632E-1,-4.427731037E0,-3.747148514E-1,4.484920728E0
4.439053879E0,-6.168791652E-1,-4.476123810E0,-4.321832657E-1,4.539053496E0
4.446988450E0,-6.138293743E-1,-4.498174191E0,-4.949455261E-1,4.566763473E0
4.454892502E0,-6.129074097E-1,-4.517783642E0,-5.399341583E-1,4.591029669E0
4.462857590E0,-6.070168614E-1,-4.538796902E0,-5.762920380E-1,4.615328731E0
4.470731125E0,-5.959385037E-1,-4.559624672E0,-6.109762192E-1,4.638815774E0
4.478665696E0,-5.841554999E-1,-4.586853981E0,-6.187543869E-1,4.665117799E0
4.486630784E0,-5.984010696E-1,-4.599051952E0,-6.682138443E-1,4.685709385E0
4.494534836E0,-6.052869558E-1,-4.617265701E0,-7.116804123E-1,4.710838977E0
4.502469407E0,-6.020672917E-1,-4.613293171E0,-7.115707397E-1,4.706515890E0
4.510342942E0,-6.008965373E-1,-4.639088631E0,-7.104015350E-1,4.731478660E0
4.518246994E0,-5.824251175E-1,-4.641139507E0,-7.061138153E-1,4.730538200E0
4.526181565E0,-5.847321749E-1,-4.646903992E0,-6.848363876E-1,4.733352861E0
4.534055100E0,-5.769726038E-1,-4.641063213E0,-6.939287186E-1,4.727991350E0
4.541989670E0,-5.852442384E-1,-4.655247211E0,-7.173357010E-1,4.746410004E0
4.549893723E0,-5.831958652E-1,-4.640578747E0,-7.066450119E-1,4.730162333E0
4.557889328E0,-5.568739176E-1,-4.618742943E0,-6.929054260E-1,4.703510695E0
4.565854416E0,-5.607356429E-1,-4.609362602E0,-6.815910339E-1,4.693102854E0
4.573758469E0,-5.567020178E-1,-4.597692013E0,-6.743116379E-1,4.680105252E0
4.581693039E0,-5.401214361E-1,-4.586025715E0,-6.351442337E-1,4.661198475E0
4.589536057E0,-5.633571148E-1,-4.560704231E0,-6.005439758E-1,4.634441432E0
4.597440110E0,-5.406623483E-1,-4.519001007E0,-5.361814499E-1,4.582704052E0
4.605374680E0,-5.339832306E-1,-4.496012211E0,-4.901599884E-1,4.554066392E0
4.613278733E0,-5.170502663E-1,-4.471853733E0,-4.123535156E-1,4.520492474E0
4.621243821E0,-5.185288787E-1,-4.438114643E0,-3.740940094E-1,4.483935784E0
4.629147873E0,-5.119615197E-1,-4.407964706E0,-2.990531921E-1,4.447661213E0
4.637112961E0,-5.023216009E-1,-4.345223427E0,-2.302742004E-1,4.380219153E0
4.645047532E0,-5.108960867E-1,-4.300393581E0,-1.651430130E-1,4.333782641E0
4.652921067E0,-5.045574903E-1,-4.253109932E0,-1.103343964E-1,4.284354798E0
4.660855637E0,-4.877213240E-1,-4.177732944E0,-6.344795227E-3,4.206110424E0
4.668759690E0,-4.676173925E-1,-4.110623360E0,1.546001434E-2,4.137164421E0
4.676633225E0,-4.852290154E-1,-4.040923119E0,6.569671631E-2,4.070481901E0
4.684537278E0,-4.733474851E-1,-3.959962845E0,1.226034164E-1,3.990036989E0
4.692410813E0,-4.322184324E-1,-3.898118019E0,1.867942810E-1,3.926452466E0
4.700345383E0,-4.384711385E-1,-3.788060188E0,2.272472382E-1,3.820117568E0
4.708218918E0,-4.150498509E-1,-3.702110052E0,3.203592300E-1,3.739052721E0
4.716184006E0,-4.149596691E-1,-3.609198570E0,4.166059494E-1,3.656783609E0
4.724118577E0,-4.212697744E-1,-3.510958672E0,4.844617844E-1,3.569173887E0
4.731992112E0,-4.202981591E-1,-3.397364140E0,5.560998917E-1,3.468137934E0
4.739957200E0,-4.096559286E-1,-3.294508696E0,6.655082703E-1,3.385927758E0
4.747861252E0,-3.844178617E-1,-3.171429873E0,6.950979233E-1,3.269389186E0
4.755765305E0,-3.615185916E-1,-3.049013615E0,7.508697510E-1,3.160851958E0
4.763730393E0,-3.576313257E-1,-2.922901154E0,7.798938751E-1,3.046224840E0
4.771573411E0,-3.396742940E-1,-2.798634768E0,8.229856491E-1,2.936841938E0
4.779538498E0,-3.364440799E-1,-2.683781147E0,9.184951782E-1,2.856485473E0
4.787412034E0,-3.236054778E-1,-2.567763329E0,9.921398163E-1,2.771726976E0
4.795407639E0,-3.204016387E-1,-2.447408676E0,1.056019783E0,2.684705611E0
4.803342209E0,-3.076463640E-1,-2.323698282E0,1.131602287E0,2.602833788E0
4.811215744E0,-2.848252952E-1,-2.081913233E0,1.143401146E0,2.392248804E0
4.819150315E0,-2.668202519E-1,-1.907270312E0,1.165735245E0,2.251180080E0
4.827023850E0,-2.446476221E-1,-1.601429701E0,1.160192490E0,1.992605370E0
4.834897385E0,-2.685896158E-1,-1.601429701E0,1.203288078E0,2.021044202E0
4.842831955E0,-2.286176980E-1,-1.468719602E0,1.239463806E0,1.935374343E0
4.850705491E0,-2.295123041E-1,-1.341014147E0,1.270538330E0,1.861521552E0
4.858640061E0,-2.210138142E-1,-1.209546208E0,1.282073021E0,1.776389700E0
4.866544114E0,-2.057429850E-1,-1.075439215E0,1.329213142E0,1.722122893E0
4.874509202E0,-2.074792683E-1,-9.283856153E-1,1.339968681E0,1.643308725E0
4.882474289E0,-1.878112853E-1,-7.953602076E-1,1.357609749E0,1.584605682E0
4.890378342E0,-1.446397901E-1,-6.535047293E-1,1.345739365E0,1.502998183E0
4.898312912E0,-1.687205732E-1,-5.041574240E-1,1.361867905E0,1.461959483E0
4.906216965E0,-1.427118778E-1,-3.807959557E-1,1.331706047E0,1.392412739E0
4.914121018E0,-1.602340341E-1,-2.478414774E-1,1.331720352E0,1.364030586E0
4.922086106E0,-1.205143631E-1,-9.495711327E-2,1.340435028E0,1.349187396E0
4.929959641E0,-1.124995053E-1,2.785801888E-2,1.347753525E0,1.352727530E0
4.937894211E0,-1.024135947E-1,1.618812084E-1,1.303398132E0,1.317399241E0
4.945767746E0,-8.769172430E-2,3.036005497E-1,1.300945282E0,1.338776217E0
4.953732834E0,-7.341873646E-2,4.143280983E-1,1.251029015E0,1.319898359E0
4.961667405E0,-4.734873772E-2,5.666956902E-1,1.240537643E0,1.364668294E0
4.969540940E0,-5.053603649E-2,6.958599091E-1,1.213620186E0,1.399874587E0
4.977475510E0,-1.837950945E-2,7.975890636E-1,1.191146851E0,1.433637660E0
4.985349045E0,-1.985025406E-2,9.212443829E-1,1.169324875E0,1.488759856E0
4.993222580E0,-2.181655169E-2,1.040565848E0,1.135372162E0,1.540234785E0
5.001157151E0,9.471774101E-3,1.160071492E0,1.101044655E0,1.599423307E0
5.009030686E0,2.117788792E-2,1.254200578E0,1.076029778E0,1.652666837E0
5.016965256E0,3.958266973E-2,1.351038814E0,1.059982300E0,1.717683073E0
5.024838791E0,6.481289864E-2,1.450012326E0,1.011877060E0,1.769359105E0
5.032803879E0,5.830478668E-2,1.541050076E0,1.005595207E0,1.841047666E0
5.040738450E0,6.354719400E-2,1.628484368E0,9.411811829E-1,1.881972795E0
5.048611985E0,9.430485964E-2,1.713685274E0,9.369125366E-1,1.955355652E0
5.056577073E0,1.052545309E-1,1.771988153E0,9.358224869E-1,2.006684893E0
5.064481125E0,1.206179857E-1,1.846433401E0,9.258203506E-1,2.069059768E0
5.072385178E0,1.163150072E-1,1.900381804E0,8.681926727E-1,2.092543595E0
5.080319748E0,1.257842183E-1,1.963585854E0,8.446416855E-1,2.141240447E0
5.088223801E0,1.296026111E-1,2.005229950E0,8.182954788E-1,2.169643169E0
5.096188889E0,1.590440273E-1,2.058134317E0,7.873783112E-1,2.209338470E0
5.104092942E0,1.663841009E-1,2.093737841E0,7.495136261E-1,2.230065580E0
5.112058030E0,1.514430642E-1,2.112925529E0,7.327365875E-1,2.241493297E0
5.119992600E0,1.623604894E-1,2.127571344E0,7.571420670E-1,2.264107962E0
5.127866135E0,1.705188155E-1,2.134710550E0,7.602252960E-1,2.272445445E0
5.135800705E0,1.678723097E-1,2.129969597E0,7.530441284E-1,2.265397770E0
5.143704758E0,1.809779406E-1,2.134313345E0,7.459545135E-1,2.268147836E0
5.151608811E0,2.006280720E-1,2.116803885E0,7.199192047E-1,2.244859454E0
5.159543381E0,1.788585186E-1,2.116684675E0,7.222280502E-1,2.243648310E0
5.167416916E0,1.782418489E-1,2.099775791E0,6.962060928E-1,2.219353837E0
5.175351487E0,1.648391485E-1,2.068746567E0,7.138061523E-1,2.194630613E0
5.183255539E0,1.697393060E-1,2.012628317E0,7.170438766E-1,2.143276952E0
5.191190110E0,1.691827178E-1,1.954615593E0,7.545537949E-1,2.102021964E0
5.199124680E0,1.630583405E-1,1.904026985E0,7.999505997E-1,2.071672692E0
5.206998215E0,1.370474696E-1,1.843448400E0,8.243217468E-1,2.024003547E0
5.214963303E0,1.321368217E-1,1.802601576E0,8.544988632E-1,1.999250081E0
5.222867356E0,1.432855725E-1,1.733492374E0,8.378305435E-1,1.930669984E0
5.230771409E0,1.247101426E-1,1.658810854E0,8.289871216E-1,1.858608543E0
5.238736496E0,1.007997394E-1,1.599414110E0,8.454999924E-1,1.811948211E0
5.246640549E0,9.058773518E-2,1.501774788E0,8.727855682E-1,1.739335591E0
5.254605637E0,7.281756401E-2,1.422255039E0,9.066400528E-1,1.688226282E0
5.262509690E0,3.311538696E-2,1.326636195E0,9.540920258E-1,1.634427061E0
5.270413743E0,3.828155994E-2,1.241270900E0,9.769401550E-1,1.580073097E0
5.278378830E0,1.415854692E-2,1.116345048E0,1.016147614E0,1.509629989E0
5.286252366E0,-1.765578985E-2,1.021410823E0,1.043130875E0,1.460038978E0
5.294217453E0,-2.601325512E-2,9.220236540E-1,1.072083473E0,1.414272704E0
5.302090989E0,-6.341505051E-2,7.976917028E-1,1.093874931E0,1.355321322E0
5.309995041E0,-6.981244683E-2,6.855257750E-1,1.137679100E0,1.330087629E0
5.317929612E0,-9.592631459E-2,5.659031868E-1,1.188424110E0,1.319772761E0
5.325803147E0,-1.031625569E-1,4.293887615E-1,1.234951019E0,1.311533927E0
5.333737717E0,-1.322025955E-1,3.119237423E-1,1.274957657E0,1.319200885E0
5.341611252E0,-1.352060437E-1,1.871299744E-1,1.257691383E0,1.278704781E0
5.349576340E0,-1.621555090E-1,5.752611160E-2,1.241337776E0,1.253205146E0
5.357510911E0,-1.798577011E-1,-6.734549999E-2,1.242235184E0,1.256993421E0
5.365384446E0,-2.337329686E-1,-2.186903954E-1,1.246632576E0,1.287070072E0
5.373319016E0,-2.421581149E-1,-3.352273703E-1,1.266845703E0,1.332634975E0
5.381192551E0,-2.484776974E-1,-4.703350067E-1,1.316766739E0,1.420151692E0
5.389066086E0,-2.903325856E-1,-6.017634869E-1,1.349147797E0,1.505527177E0
5.397000657E0,-3.131914735E-1,-7.649371624E-1,1.337416649E0,1.572228054E0
5.404904709E0,-3.408367634E-1,-8.995968103E-1,1.332016945E0,1.643080419E0
5.412900315E0,-3.542254865E-1,-1.036003590E0,1.337925911E0,1.728821817E0
5.420743332E0,-3.702141047E-1,-1.179898381E0,1.312023163E0,1.802948544E0
5.428647385E0,-3.667545915E-1,-1.316759348E0,1.288144112E0,1.878211746E0
5.436612473E0,-4.134455919E-1,-1.462717295E0,1.273354530E0,1.982904663E0
5.444516526E0,-4.336001873E-1,-1.599764228E0,1.236666679E0,2.067994000E0
5.452451096E0,-4.319471121E-1,-1.739297509E0,1.235584259E0,2.176787218E0
5.460355149E0,-4.613878131E-1,-1.877398014E0,1.210229874E0,2.280824054E0
5.468259202E0,-4.693278074E-1,-1.995893359E0,1.186985016E0,2.369133242E0
5.476224289E0,-4.699712992E-1,-2.143644094E0,1.165838242E0,2.485007411E0
5.484128342E0,-4.823752046E-1,-2.262367249E0,1.074971199E0,2.550794873E0
5.492093430E0,-4.968281388E-1,-2.379887104E0,1.029254913E0,2.640088352E0
5.499997483E0,-5.325699449E-1,-2.509302616E0,9.425086975E-1,2.732865348E0
5.507962571E0,-5.443661213E-1,-2.626725674E0,8.959703445E-1,2.828212350E0
5.515927659E0,-5.370016098E-1,-2.743996620E0,8.586053848E-1,2.924908783E0
5.523831711E0,-5.343132615E-1,-2.844272137E0,7.918643951E-1,3.000403951E0
5.531796799E0,-5.290402174E-1,-2.982851028E0,7.531318665E-1,3.121616795E0
5.539670334E0,-5.380079150E-1,-3.077965260E0,6.587715149E-1,3.193321557E0
5.547543869E0,-5.512330532E-1,-3.179584980E0,6.014432907E-1,3.282583214E0
5.555478440E0,-5.618932247E-1,-3.270372391E0,5.193223953E-1,3.358683570E0
5.563382493E0,-5.717265010E-1,-3.370197058E0,4.903097153E-1,3.453332161E0
5.571347580E0,-5.780755877E-1,-3.450758934E0,4.251852036E-1,3.524583814E0
5.579251633E0,-5.616882443E-1,-3.515953064E0,3.454437256E-1,3.577254674E0
5.587155686E0,-5.706261396E-1,-3.597938538E0,2.682485580E-1,3.652770620E0
5.595090256E0,-5.457513332E-1,-3.668025970E0,1.769742966E-1,3.712624266E0
5.602994309E0,-5.536968708E-1,-3.757271290E0,8.102989197E-2,3.798714732E0
5.610928879E0,-5.540326834E-1,-3.811357021E0,1.101016998E-2,3.851430355E0
5.618802414E0,-5.443776250E-1,-3.855701923E0,-5.685997009E-2,3.894357120E0
5.626675950E0,-5.557041168E-1,-3.910454750E0,-1.613817215E-1,3.953037753E0
5.634641037E0,-5.399369597E-1,-3.951449633E0,-1.902542114E-1,3.992703694E0
5.642484055E0,-5.401507616E-1,-4.013031960E0,-2.583408356E-1,4.057453431E0
5.650449143E0,-5.228754282E-1,-4.046662331E0,-3.324356079E-1,4.093823172E0
5.658353196E0,-5.243394971E-1,-4.059230804E0,-4.216575623E-1,4.114618054E0
5.666318284E0,-5.136904120E-1,-4.104589462E0,-4.706869125E-1,4.163301414E0
5.674252854E0,-5.126543045E-1,-4.128942490E0,-5.510301590E-1,4.196976859E0
5.682156907E0,-5.158886909E-1,-4.162477493E0,-5.751361847E-1,4.233573155E0
5.690091477E0,-5.068595409E-1,-4.166389942E0,-6.287031174E-1,4.243934419E0
5.697995530E0,-4.971999526E-1,-4.208072662E0,-6.637926102E-1,4.289021328E0
5.705869065E0,-5.011460185E-1,-4.215862274E0,-7.242422104E-1,4.306874601E0
5.713803635E0,-4.997316301E-1,-4.231918335E0,-7.378292084E-1,4.324726169E0
5.721707688E0,-4.861674905E-1,-4.242249489E0,-7.691144943E-1,4.338729844E0
5.729642258E0,-4.767734110E-1,-4.268670082E0,-8.020677567E-1,4.369458758E0
5.737546311E0,-4.883655906E-1,-4.286895275E0,-8.336734772E-1,4.394426415E0
5.745450364E0,-4.822253585E-1,-4.292368412E0,-8.526973724E-1,4.402733320E0
5.753384934E0,-4.826350510E-1,-4.277165413E0,-8.729887009E-1,4.391946019E0
5.761288987E0,-4.871369600E-1,-4.289094925E0,-8.754358292E-1,4.404546013E0
5.769254075E0,-4.836283326E-1,-4.289753914E0,-8.512935638E-1,4.400066561E0
5.777097092E0,-4.675441980E-1,-4.292546749E0,-8.264236450E-1,4.396308817E0
5.785001145E0,-4.578798711E-1,-4.278476715E0,-8.438653946E-1,4.384874660E0
5.792966233E0,-4.469636977E-1,-4.296184540E0,-8.011922836E-1,4.393049877E0
5.800839768E0,-4.711222053E-1,-4.268159389E0,-7.816734314E-1,4.364648217E0
5.808774338E0,-4.587744176E-1,-4.264127731E0,-7.277107239E-1,4.350037031E0
5.816647873E0,-4.430790544E-1,-4.241565704E0,-7.116670609E-1,4.323617545E0
5.824612961E0,-4.651916325E-1,-4.200038910E0,-6.729993820E-1,4.278978648E0
5.832547532E0,-4.360966682E-1,-4.193929672E0,-6.357994080E-1,4.264207697E0
5.840451584E0,-4.540985823E-1,-4.162883282E0,-5.809860229E-1,4.227688198E0
5.848386155E0,-4.234324098E-1,-4.131920338E0,-5.536308289E-1,4.190294474E0
5.856290207E0,-4.423542917E-1,-4.093237400E0,-4.843969345E-1,4.145468625E0
5.864163743E0,-4.628979862E-1,-4.065299034E0,-4.284381866E-1,4.113938510E0
5.872128830E0,-4.181881547E-1,-4.012378693E0,-3.640222549E-1,4.050503217E0
5.880032883E0,-4.111920297E-1,-3.961022139E0,-2.813787460E-1,3.992236124E0
5.887967453E0,-4.393839538E-1,-3.912804365E0,-2.356424332E-1,3.944442117E0
5.895871506E0,-4.523988068E-1,-3.856442451E0,-1.714019775E-1,3.886668458E0
5.903836594E0,-4.124315679E-1,-3.778184652E0,-8.834934235E-2,3.801655517E0
5.911801682E0,-4.172629118E-1,-3.726112843E0,-2.512931824E-2,3.749487530E0
5.919675217E0,-3.952998817E-1,-3.654613495E0,6.207275391E-2,3.676454110E0
5.927640305E0,-3.920758069E-1,-3.567702293E0,1.205959320E-1,3.591206827E0
5.935544358E0,-3.978148401E-1,-3.466855764E0,1.839904785E-1,3.494452466E0
5.943539963E0,-3.911378384E-1,-3.380783081E0,2.505273819E-1,3.412542603E0
5.951474534E0,-3.840691745E-1,-3.280862093E0,3.152093887E-1,3.318270960E0
5.959378586E0,-3.984150290E-1,-3.182022572E0,3.907032013E-1,3.230580625E0
5.967343674E0,-3.787761331E-1,-3.059106112E0,4.722089767E-1,3.118426346E0
5.975217209E0,-3.805745542E-1,-2.954039574E0,5.409154892E-1,3.027172998E0
5.983151780E0,-3.491846323E-1,-2.841949224E0,5.830020905E-1,2.922070625E0
5.991147385E0,-3.512695134E-1,-2.714970350E0,6.580390930E-1,2.815576268E0
5.999051438E0,-3.511269689E-1,-2.611592770E0,7.304191589E-1,2.734450418E0
6.006986008E0,-3.321064115E-1,-2.477872372E0,8.026094437E-1,2.625705253E0
6.014859543E0,-3.205773234E-1,-2.358274221E0,8.745203018E-1,2.535549818E0
6.022794114E0,-3.118549585E-1,-2.256252766E0,9.749164581E-1,2.477577881E0
6.030759202E0,-2.960902154E-1,-2.119298458E0,1.029508591E0,2.374654356E0
6.038632737E0,-2.853638232E-1,-1.992589235E0,1.064691544E0,2.277150073E0
6.046567307E0,-2.590546310E-1,-1.761873722E0,1.140372276E0,2.114652984E0
6.054440842E0,-2.587924302E-1,-1.583477616E0,1.183768272E0,1.993911283E0
6.062405930E0,-2.300284803E-1,-1.431147337E0,1.202211380E0,1.883190910E0
6.070340500E0,-2.199847102E-1,-1.302401066E0,1.253201485E0,1.820756922E0
6.078214036E0,-2.077711225E-1,-1.162716389E0,1.253547668E0,1.722341429E0
6.086148606E0,-1.983604133E-1,-1.010837197E0,1.279701233E0,1.642794552E0
6.094052659E0,-1.793195307E-1,-8.722491264E-1,1.286491394E0,1.564619487E0
6.101956711E0,-1.603767276E-1,-7.304766178E-1,1.292761803E0,1.493502548E0
6.109921799E0,-1.655246019E-1,-6.011877060E-1,1.320163727E0,1.460019629E0
6.117795334E0,-1.492512822E-1,-4.631878138E-1,1.335108757E0,1.421032825E0
6.125729905E0,-1.238925457E-1,-3.047204018E-1,1.361037254E0,1.400223658E0
6.133633957E0,-1.104820371E-1,-1.941922903E-1,1.374547005E0,1.392586225E0
6.141538010E0,-9.482389688E-2,-3.895556927E-2,1.396547318E0,1.400304795E0
6.149472580E0,-9.152513742E-2,8.540463448E-2,1.417558670E0,1.423075327E0
6.157346116E0,-5.961310863E-2,2.430791855E-1,1.415860176E0,1.437811271E0
6.165280686E0,-6.168150902E-2,3.634517193E-1,1.403019905E0,1.450643518E0
6.173184739E0,-3.496891260E-2,4.731547832E-1,1.417937279E0,1.495207143E0
6.181058274E0,-2.538996935E-2,6.193258762E-1,1.397446632E0,1.528746638E0
6.188992844E0,-6.387114525E-3,7.458639145E-1,1.384891510E0,1.572983874E0
6.196896897E0,7.572472095E-3,8.839731216E-1,1.341885567E0,1.606898471E0
6.204831467E0,2.590334415E-2,1.005519867E0,1.310856819E0,1.652297427E0
6.212735520E0,5.809193850E-2,1.124141693E0,1.256271362E0,1.686797841E0
6.220731125E0,6.129634380E-2,1.234138846E0,1.244774818E0,1.753944207E0
6.228665696E0,6.887888908E-2,1.350067735E0,1.214052200E0,1.816961732E0
6.236539231E0,1.024745703E-1,1.460971951E0,1.177855492E0,1.879437054E0
6.244534836E0,9.715181589E-2,1.552704692E0,1.167216301E0,1.944922679E0
6.252408371E0,1.224760413E-1,1.674511075E0,1.148994446E0,2.034496487E0
6.260312424E0,1.257851720E-1,1.764608264E0,1.095999718E0,2.081076552E0
6.268277512E0,1.330496073E-1,1.849030614E0,1.094121933E0,2.152607538E0
6.276181565E0,1.492620111E-1,1.938259363E0,1.126835823E0,2.246972959E0
6.284146653E0,1.317665577E-1,1.993623853E0,1.114890099E0,2.287985669E0
6.291989670E0,1.687551737E-1,2.066431761E0,1.093469620E0,2.343991113E0
6.299893723E0,1.547366381E-1,2.140926600E0,1.086795807E0,2.405958283E0
6.307828293E0,1.661419868E-1,2.186569691E0,1.047116280E0,2.430049933E0
6.315732346E0,1.910150647E-1,2.237651348E0,1.028692245E0,2.470177736E0
6.323697434E0,1.914372444E-1,2.271448374E0,9.936885834E-1,2.486673065E0
6.331601487E0,1.985207200E-1,2.334085226E0,9.518966675E-1,2.528531507E0
6.339505539E0,1.884695888E-1,2.351706743E0,9.574155807E-1,2.546112721E0
6.347501145E0,2.039202452E-1,2.395290136E0,9.366331100E-1,2.579976722E0
6.355344162E0,1.922565699E-1,2.412444353E0,9.327440262E-1,2.593619433E0
6.363309250E0,2.057060599E-1,2.405693769E0,9.063367844E-1,2.578977290E0
6.371213303E0,1.970643401E-1,2.410784960E0,9.087562561E-1,2.583903328E0
6.379178391E0,2.019856572E-1,2.420966387E0,8.911943436E-1,2.587683097E0
6.387143479E0,1.825753450E-1,2.395126581E0,8.761568069E-1,2.556876189E0
6.395047532E0,1.841986179E-1,2.376629591E0,8.757514954E-1,2.539535002E0
6.402982102E0,1.609602571E-1,2.344476938E0,8.771743774E-1,2.508369033E0
6.410886155E0,1.753752828E-1,2.303254843E0,9.174003601E-1,2.485430100E0
6.418790207E0,1.724050641E-1,2.286164761E0,9.580307007E-1,2.484772755E0
6.426755295E0,1.519318223E-1,2.219642401E0,9.432859421E-1,2.416543820E0
6.434659348E0,1.428231597E-1,2.167892456E0,9.674949646E-1,2.378277247E0
6.442593918E0,1.214307547E-1,2.114516973E0,9.447164536E-1,2.319141358E0
6.450497971E0,1.376730204E-1,2.086603403E0,9.221897125E-1,2.285454329E0
6.458463059E0,1.151189208E-1,1.992688656E0,9.367446899E-1,2.204892528E0
6.466397629E0,9.418791533E-2,1.930333138E0,9.690446854E-1,2.161967851E0
6.474271164E0,7.768362761E-2,1.844357491E0,1.011989594E0,2.105186984E0
6.482205735E0,5.369925499E-2,1.752587676E0,1.023011208E0,2.030024409E0
6.490079270E0,5.553555489E-2,1.680670857E0,1.042616844E0,1.978582476E0
6.497983323E0,2.574223280E-2,1.582747102E0,1.058809280E0,1.904423310E0
6.505948411E0,1.939201355E-2,1.499988675E0,1.069482803E0,1.842317981E0
6.513852463E0,5.468308926E-3,1.375614047E0,1.118092537E0,1.772702691E0
6.521817551E0,-2.324199677E-2,1.278127789E0,1.154137611E0,1.722261439E0
6.529691086E0,-4.270285368E-2,1.172024369E0,1.192251205E0,1.672401744E0
6.537625657E0,-6.230545044E-2,1.063073039E0,1.223293304E0,1.621867061E0
6.545590744E0,-8.006125689E-2,9.422874451E-1,1.263538361E0,1.578240990E0
6.553494797E0,-8.835482597E-2,8.145058155E-1,1.304300308E0,1.540268026E0
6.561429368E0,-1.113095582E-1,6.806156635E-1,1.333242416E0,1.501053910E0
6.569302903E0,-1.323348880E-1,5.720262527E-1,1.355347633E0,1.477055775E0
6.577206955E0,-1.557644904E-1,4.590213299E-1,1.342378616E0,1.427215298E0
6.585172043E0,-1.842659116E-1,3.244497776E-1,1.322443008E0,1.374073177E0
6.593076096E0,-1.962534189E-1,2.134876251E-1,1.334500313E0,1.365643971E0
6.601041184E0,-2.132800519E-1,8.124303818E-2,1.354830742E0,1.373919630E0
6.608884202E0,-2.257174551E-1,-6.437456608E-2,1.352046013E0,1.372268514E0
6.616849289E0,-2.429002523E-1,-1.973184347E-1,1.372185707E0,1.407419167E0
6.624814377E0,-2.602066994E-1,-3.387800455E-1,1.355083466E0,1.420820412E0
6.632687912E0,-2.823574841E-1,-4.610059261E-1,1.344210625E0,1.448845891E0
6.640622483E0,-2.925124168E-1,-6.105340719E-1,1.351822853E0,1.511866526E0
6.648496018E0,-3.148309290E-1,-7.582390308E-1,1.360916138E0,1.589382797E0
6.656369553E0,-3.251563609E-1,-8.877050877E-1,1.331155777E0,1.632704102E0
6.664273606E0,-3.401396573E-1,-1.030854940E0,1.341496468E0,1.725679480E0
6.672147141E0,-3.455651402E-1,-1.162517548E0,1.315496445E0,1.789243754E0
6.680081711E0,-3.483861387E-1,-1.306910872E0,1.303430557E0,1.878382322E0
6.687955246E0,-3.920152485E-1,-1.441196918E0,1.274121284E0,1.963188621E0
6.695920334E0,-3.852865696E-1,-1.577162385E0,1.268472672E0,2.060317900E0
6.703854905E0,-3.786816597E-1,-1.703545690E0,1.207333565E0,2.122056091E0
6.711728440E0,-3.932701647E-1,-1.824030399E0,1.145943642E0,2.189734036E0
6.719663010E0,-4.027125239E-1,-1.942453861E0,1.091437340E0,2.264186354E0
6.727536545E0,-4.334445000E-1,-2.095333576E0,1.000658035E0,2.362120538E0
6.735410080E0,-4.521513879E-1,-2.188994408E0,9.142761230E-1,2.414961330E0
6.743344651E0,-4.581644535E-1,-2.435282230E0,8.861951828E-1,2.631702132E0
6.751248703E0,-4.629528522E-1,-2.423311234E0,8.167629242E-1,2.598819800E0
6.759183274E0,-4.620327353E-1,-2.541919470E0,7.648153305E-1,2.694396283E0
6.767056809E0,-4.703503251E-1,-2.639645576E0,7.098426819E-1,2.773596011E0
6.775021897E0,-4.760949612E-1,-2.758404255E0,6.492719650E-1,2.873502137E0
6.782956467E0,-4.746451974E-1,-2.874390602E0,5.688953400E-1,2.968341507E0
6.790830002E0,-4.845982492E-1,-2.961799622E0,5.184736252E-1,3.045637431E0
6.798795090E0,-4.840737581E-1,-3.049180269E0,4.639711380E-1,3.122034102E0
6.806668625E0,-4.920697212E-1,-3.139023304E0,3.979558945E-1,3.202181882E0
6.814542161E0,-4.961013198E-1,-3.207887888E0,3.147306442E-1,3.261244640E0
6.822476731E0,-4.969090223E-1,-3.304746151E0,2.292423248E-1,3.349748907E0
6.830380784E0,-4.875938296E-1,-3.378061771E0,1.394557953E-1,3.415918177E0
6.838315354E0,-4.752512574E-1,-3.438050747E0,7.123565674E-2,3.471473925E0
6.846219407E0,-5.055413246E-1,-3.500937223E0,-4.227924347E-2,3.537502086E0
6.854184494E0,-4.873802364E-1,-3.567073345E0,-1.010818481E-1,3.601634252E0
6.862088547E0,-4.780068696E-1,-3.596074581E0,-2.010488510E-1,3.633271749E0
6.869992600E0,-4.822074771E-1,-3.661860228E0,-2.777643204E-1,3.703902995E0
6.877927170E0,-4.833289385E-1,-3.707064390E0,-3.600902557E-1,3.755742037E0
6.885831223E0,-4.837726355E-1,-3.734305382E0,-4.361410141E-1,3.790684850E0
6.893735276E0,-4.766479731E-1,-3.775825262E0,-4.770364761E-1,3.835572122E0
6.901669846E0,-4.621400833E-1,-3.801408291E0,-5.353126526E-1,3.866631362E0
6.909573899E0,-4.641917944E-1,-3.821607590E0,-6.083946228E-1,3.897473875E0
6.917538987E0,-4.731160402E-1,-3.862462521E0,-6.365547180E-1,3.943051790E0
6.925443039E0,-4.624014795E-1,-3.870243073E0,-6.704130173E-1,3.955003184E0
6.933408127E0,-4.657025337E-1,-3.910256386E0,-7.026634216E-1,4.000089966E0
6.941342698E0,-4.494774342E-1,-3.935270786E0,-7.571220398E-1,4.032569889E0
6.949216233E0,-4.422403574E-1,-3.926260471E0,-7.985486984E-1,4.030977282E0
6.957150803E0,-4.443331957E-1,-3.956510305E0,-8.265867233E-1,4.066282257E0
6.965054856E0,-4.291839004E-1,-3.976372719E0,-8.817939758E-1,4.095521876E0
6.972958909E0,-4.516600370E-1,-3.973777533E0,-9.074573517E-1,4.101022252E0
6.980893479E0,-4.401557744E-1,-3.993613243E0,-9.342203140E-1,4.124978962E0
6.988767014E0,-4.330347478E-1,-3.997289896E0,-9.334497452E-1,4.127611177E0
6.996701584E0,-4.179435670E-1,-3.992733955E0,-9.415655136E-1,4.123487223E0
7.004575119E0,-4.120016098E-1,-4.010420799E0,-9.724254608E-1,4.147147404E0
7.012540207E0,-4.055521190E-1,-3.992290974E0,-9.591712952E-1,4.125878005E0
7.020474778E0,-4.244576693E-1,-3.998607397E0,-9.311056137E-1,4.127466910E0
7.028348313E0,-3.948108852E-1,-3.983221054E0,-9.068555832E-1,4.104182336E0
7.036282883E0,-3.910496831E-1,-3.974884272E0,-8.600502014E-1,4.085622496E0
7.044186936E0,-4.031991363E-1,-3.954963207E0,-7.959775925E-1,4.054366022E0
7.052090989E0,-3.956108093E-1,-3.935079575E0,-7.690658569E-1,4.028997575E0
7.060056077E0,-3.848739266E-1,-3.924643993E0,-7.362117767E-1,4.011603943E0
7.067960129E0,-3.806694150E-1,-3.902821064E0,-6.690797806E-1,3.978013224E0
7.075925217E0,-3.853243887E-1,-3.866866112E0,-6.101236343E-1,3.933621647E0
7.083768235E0,-3.797417283E-1,-3.838930607E0,-5.836753845E-1,3.901572624E0
7.091763840E0,-3.759990931E-1,-3.784817696E0,-5.604562759E-1,3.844519677E0
7.099698411E0,-3.570140004E-1,-3.748526335E0,-5.120096207E-1,3.800139804E0
7.107571946E0,-3.709692359E-1,-3.674885273E0,-4.621667862E-1,3.722364582E0
7.115537034E0,-3.722796440E-1,-3.643804789E0,-3.890304565E-1,3.683374834E0
7.123410569E0,-3.537955880E-1,-3.594295740E0,-2.951087952E-1,3.623702856E0
7.131284104E0,-3.588269353E-1,-3.541598320E0,-2.422952652E-1,3.567966147E0
7.139218674E0,-3.417429030E-1,-3.462077141E0,-1.776952744E-1,3.483438237E0
7.147122727E0,-3.239669800E-1,-3.395893097E0,-9.407138824E-2,3.412608087E0
7.155087815E0,-3.176873624E-1,-3.316128492E0,-3.315925598E-3,3.331312719E0
7.162991868E0,-3.323189914E-1,-3.228535175E0,6.142711639E-2,3.246174453E0
7.170956955E0,-3.083646595E-1,-3.148190498E0,1.339693069E-1,3.166092221E0
7.178891526E0,-3.004545569E-1,-3.041737556E0,2.452945709E-1,3.066367514E0
7.186765061E0,-2.947416902E-1,-2.933539391E0,3.170108795E-1,2.965303006E0
7.194699631E0,-2.862125039E-1,-2.851269722E0,4.042234421E-1,2.893968420E0
7.202603684E0,-2.817907631E-1,-2.736741304E0,4.711618423E-1,2.791263600E0
7.210507737E0,-2.751157880E-1,-2.613896608E0,5.184659958E-1,2.678983233E0
7.218472825E0,-2.732701302E-1,-2.521189690E0,5.797052383E-1,2.601371211E0
7.226346360E0,-2.599986792E-1,-2.382775545E0,6.717071533E-1,2.489258747E0
7.234280930E0,-2.375383824E-1,-2.263791800E0,7.609786987E-1,2.400055494E0
7.242154465E0,-2.434000075E-1,-2.162243128E0,7.900094986E-1,2.314876652E0
7.250119553E0,-2.397897542E-1,-2.033142567E0,8.498725891E-1,2.216630605E0
7.258054123E0,-2.265041173E-1,-1.913884640E0,9.141931534E-1,2.133074694E0
7.265927659E0,-2.209488153E-1,-1.790107965E0,9.423007965E-1,2.035002629E0
7.273892746E0,-2.133688331E-1,-1.650052786E0,1.008330345E0,1.945489794E0
7.281796799E0,-2.011630833E-1,-1.450523496E0,1.086533546E0,1.823469261E0
7.289700852E0,-1.842749417E-1,-1.266998529E0,1.145324707E0,1.717850754E0
7.297635422E0,-1.871083975E-1,-1.110186934E0,1.207327843E0,1.650807409E0
7.305539475E0,-1.776576638E-1,-9.903436899E-1,1.248253822E0,1.603271803E0
7.313504563E0,-1.541776359E-1,-8.595001698E-1,1.322268486E0,1.584583615E0
7.321378098E0,-1.597899795E-1,-7.286602259E-1,1.343279839E0,1.536515306E0
7.329251633E0,-1.514252722E-1,-5.948148966E-1,1.387643814E0,1.517329802E0
7.337216721E0,-1.359348893E-1,-4.610604048E-1,1.398126602E0,1.478449521E0
7.345120774E0,-1.253683567E-1,-3.093802929E-1,1.415229797E0,1.454066288E0
7.353055344E0,-1.125570536E-1,-1.792047024E-1,1.417149544E0,1.432862954E0
7.360959397E0,-1.071307659E-1,-1.860594749E-2,1.406534195E0,1.410730883E0
7.368863450E0,-9.244751930E-2,1.109032631E-1,1.416511536E0,1.423850768E0
7.376798020E0,-9.002947807E-2,2.438087463E-1,1.420889854E0,1.444463911E0
7.384671555E0,-8.058214188E-2,3.831758499E-1,1.416805267E0,1.469916453E0
7.392667161E0,-6.669276953E-2,5.154297352E-1,1.435467720E0,1.526657562E0
7.400540696E0,-4.570537806E-2,6.548533440E-1,1.424115181E0,1.568128162E0
7.408475266E0,-4.193329811E-2,7.782201767E-1,1.403697968E0,1.605538237E0
7.416440354E0,-3.356981277E-2,9.028327465E-1,1.410895348E0,1.675368492E0
7.424344407E0,-1.364427805E-2,1.017804146E0,1.398986816E0,1.730108539E0
7.432340012E0,2.042722702E-2,1.134068012E0,1.416143417E0,1.814384112E0
7.440244065E0,4.051625729E-3,1.281535625E0,1.405197144E0,1.901822544E0
7.448087082E0,8.881747723E-3,1.385647058E0,1.412964821E0,1.979031642E0
7.456082688E0,2.540951967E-2,1.512564778E0,1.384772301E0,2.050875954E0
7.463986741E0,5.586737394E-2,1.607389092E0,1.378021240E0,2.117962086E0
7.471921311E0,4.759758711E-2,1.716045260E0,1.320004463E0,2.165522720E0
7.479794846E0,7.495099306E-2,1.814057708E0,1.311871529E0,2.239962037E0
7.487668381E0,7.806378603E-2,1.931552291E0,1.250150681E0,2.302143551E0
7.495663987E0,9.764856100E-2,2.026899815E0,1.218113899E0,2.366782536E0
7.503537522E0,1.049463749E-1,2.110317707E0,1.187152863E0,2.423589587E0
7.511502610E0,1.283040643E-1,2.190675735E0,1.135249138E0,2.470690737E0
7.519406662E0,1.317230463E-1,2.258100271E0,1.141129494E0,2.533484620E0
7.527310715E0,1.249850988E-1,2.312909365E0,1.137780190E0,2.580642316E0
7.535275803E0,1.397387385E-1,2.415332079E0,1.101357460E0,2.658259623E0
7.543179856E0,1.707484722E-1,2.453606844E0,1.071653366E0,2.682868339E0
7.551114426E0,1.651582718E-1,2.500971079E0,1.049213409E0,2.717164399E0
7.559018479E0,1.921800971E-1,2.529982805E0,1.069313049E0,2.753393648E0
7.566983567E0,1.969524622E-1,2.563394308E0,1.055854797E0,2.779318262E0
7.574948655E0,1.988594532E-1,2.596737146E0,1.061631203E0,2.812409945E0
7.582822190E0,2.003001571E-1,2.623913050E0,1.054827690E0,2.835084002E0
7.590756760E0,1.794889569E-1,2.643537283E0,1.028699875E0,2.842310519E0
7.598660813E0,1.798721552E-1,2.663098574E0,1.014531136E0,2.855472190E0
7.606534348E0,1.816924810E-1,2.664314032E0,1.006721497E0,2.853956830E0
7.614468918E0,1.946195960E-1,2.641119719E0,9.747066498E-1,2.821957336E0
7.622311936E0,1.950887442E-1,2.639817476E0,9.835748672E-1,2.823847631E0
7.630246506E0,2.067363262E-1,2.622393847E0,9.772300720E-1,2.806183887E0
7.638150559E0,1.962379217E-1,2.592872381E0,9.541320801E-1,2.769813086E0
7.646024094E0,1.876801252E-1,2.577988386E0,9.576272964E-1,2.756501041E0
7.653958664E0,1.710113883E-1,2.520972967E0,9.366416931E-1,2.694781486E0
7.661893235E0,1.681137681E-1,2.473564386E0,9.566164017E-1,2.657423179E0
7.669827805E0,1.644508839E-1,2.433721781E0,9.770803452E-1,2.627685636E0
7.677701340E0,1.481549144E-1,2.371568441E0,1.011956215E0,2.582700550E0
7.685605393E0,1.265752912E-1,2.307551622E0,1.026036263E0,2.528550218E0
7.693539963E0,1.234702468E-1,2.229418516E0,1.048000336E0,2.466547491E0
7.701413498E0,1.149707437E-1,2.170269728E0,1.080167770E0,2.426942804E0
7.709348069E0,1.011376381E-1,2.105230570E0,1.096953392E0,2.376032685E0
7.717252121E0,1.012881994E-1,1.983643413E0,1.124629974E0,2.282519018E0
7.725217209E0,6.969505548E-2,1.924676180E0,1.158272743E0,2.247405514E0
7.733151780E0,6.873029470E-2,1.833151221E0,1.150362968E0,2.165294948E0
7.741055832E0,3.383523226E-2,1.728296399E0,1.160898209E0,2.082267494E0
7.748990403E0,2.012187243E-2,1.615446925E0,1.175830841E0,1.998162112E0
7.756863938E0,8.397102356E-3,1.523059011E0,1.204727173E0,1.941944083E0
7.764737473E0,8.102178574E-3,1.427003026E0,1.211704254E0,1.872065832E0
7.772672043E0,-2.369183302E-2,1.308371663E0,1.216125488E0,1.786437493E0
7.780515061E0,-4.833030701E-2,1.186775446E0,1.242214203E0,1.718682025E0
7.788449631E0,-7.092201710E-2,1.088031411E0,1.268327713E0,1.672572113E0
7.796384202E0,-8.673983812E-2,9.684627056E-1,1.308766365E0,1.630433442E0
7.804257737E0,-9.791073203E-2,8.398275375E-1,1.337986946E0,1.582752625E0
7.812222825E0,-1.356542706E-1,6.978349686E-1,1.369873047E0,1.543349568E0
7.820096360E0,-1.233022213E-1,5.599057674E-1,1.395159721E0,1.508366187E0
7.828030930E0,-1.612569392E-1,4.411671162E-1,1.390213966E0,1.467421922E0
7.835934983E0,-1.875022650E-1,3.182728291E-1,1.378608704E0,1.427240922E0
7.843839036E0,-1.946407557E-1,1.766474247E-1,1.396919250E0,1.421433336E0
7.851804123E0,-2.187327445E-1,2.969121933E-2,1.394720078E0,1.412079912E0
7.859708176E0,-2.355884612E-1,-1.032105684E-1,1.422451019E0,1.445517640E0
7.867673264E0,-2.665527165E-1,-2.449357510E-1,1.401409149E0,1.447408538E0
7.875577317E0,-2.784592509E-1,-3.801321983E-1,1.398428917E0,1.475684071E0
7.883542405E0,-2.997826636E-1,-5.047761202E-1,1.377978325E0,1.497829376E0
7.891476975E0,-3.212852776E-1,-6.319602728E-1,1.327962875E0,1.505351592E0
7.899350510E0,-3.235058486E-1,-7.883461714E-1,1.306218147E0,1.559599810E0
7.907285080E0,-3.400405347E-1,-9.027333260E-1,1.240850449E0,1.571707625E0
7.915158616E0,-3.514976501E-1,-1.047602415E0,1.222817421E0,1.648121313E0
7.923032151E0,-3.674400151E-1,-1.175185680E0,1.185345650E0,1.709127806E0
7.930997239E0,-4.000822902E-1,-1.317968369E0,1.176180840E0,1.811217222E0
7.938901291E0,-3.872937858E-1,-1.449581623E0,1.140283585E0,1.884550347E0
7.946835862E0,-3.933269978E-1,-1.585295081E0,1.111275673E0,1.975550618E0
7.954739914E0,-4.065641761E-1,-1.709306479E0,1.043596268E0,2.043554804E0
7.962582932E0,-4.194509387E-1,-1.839557886E0,9.875564575E-1,2.129596221E0
7.970548020E0,-4.391779304E-1,-1.947173238E0,9.239587784E-1,2.199559205E0
7.978421555E0,-4.277827144E-1,-2.068126440E0,8.743009567E-1,2.285726840E0
7.986386643E0,-4.402941763E-1,-2.190181255E0,8.026151657E-1,2.373803698E0
7.994290696E0,-4.549890161E-1,-2.282517433E0,7.471742630E-1,2.444416130E0
8.002194748E0,-4.549215138E-1,-2.424716949E0,7.150239944E-1,2.568553130E0
8.010159836E0,-4.477223158E-1,-2.524836779E0,6.199512482E-1,2.638104543E0
8.018063889E0,-4.545579553E-1,-2.612659693E0,5.144729614E-1,2.701350779E0
8.026028977E0,-4.704808295E-1,-2.727683544E0,4.295005798E-1,2.801085589E0
8.033902512E0,-4.422253370E-1,-2.807984829E0,3.332910538E-1,2.862066557E0
8.041898118E0,-4.367400706E-1,-2.877156973E0,2.467699051E-1,2.920559796E0
8.049863205E0,-4.610822499E-1,-2.949761391E0,1.842718124E-1,2.991261474E0
8.057736741E0,-4.540148973E-1,-3.017461538E0,9.324455261E-2,3.052850833E0
8.065701828E0,-4.392385185E-1,-3.092840910E0,4.316329956E-2,3.124173241E0
8.073575364E0,-4.445964992E-1,-3.266062737E0,-1.527309418E-2,3.296219822E0
8.081479416E0,-4.326255023E-1,-3.210996151E0,-1.038589478E-1,3.241673609E0
8.089413987E0,-4.284845889E-1,-3.287597179E0,-1.870708466E-1,3.320676100E0
8.097318039E0,-4.311233759E-1,-3.327781200E0,-2.441387177E-1,3.364461145E0
8.105252610E0,-4.139291048E-1,-3.396574020E0,-3.091068268E-1,3.435636682E0
8.113156662E0,-4.058689475E-1,-3.424158096E0,-3.841352463E-1,3.469459347E0
8.121121750E0,-3.972463608E-1,-3.464782000E0,-4.623289108E-1,3.517991898E0
8.129056321E0,-4.096154869E-1,-3.491388083E0,-5.123262405E-1,3.552471501E0
8.136929856E0,-4.122601151E-1,-3.524379730E0,-6.033649445E-1,3.599341626E0
8.144864426E0,-4.098184407E-1,-3.551949024E0,-6.708221436E-1,3.637897109E0
8.152768479E0,-3.856200874E-1,-3.563322067E0,-7.269964218E-1,3.657115093E0
8.160672532E0,-3.684934974E-1,-3.614348412E0,-7.789516449E-1,3.715651701E0
8.168637619E0,-3.558253050E-1,-3.607171059E0,-8.338451385E-1,3.719353762E0
8.176541672E0,-3.685595393E-1,-3.626231670E0,-8.753890991E-1,3.748559501E0
8.184537278E0,-3.782873452E-1,-3.672905445E0,-9.224557877E-1,3.805819282E0
8.192410813E0,-3.808081746E-1,-3.678243876E0,-9.749584198E-1,3.824269446E0
8.200375901E0,-3.540206254E-1,-3.692383766E0,-9.832983017E-1,3.837434564E0
8.208310471E0,-3.556157351E-1,-3.688547611E0,-9.853239059E-1,3.834411197E0
8.216184006E0,-3.254634440E-1,-3.701966286E0,-9.979934692E-1,3.847917852E0
8.224118577E0,-3.543570936E-1,-3.719004869E0,-9.954319000E-1,3.866193326E0
8.231992112E0,-3.489410579E-1,-3.720003843E0,-9.891357422E-1,3.865045662E0
8.239865647E0,-3.429170251E-1,-3.716490746E0,-1.010353088E0,3.866614658E0
8.247769700E0,-3.098005354E-1,-3.728117466E0,-9.925403595E-1,3.870396953E0
8.255673752E0,-3.360952437E-1,-3.708680391E0,-9.783487320E-1,3.850251485E0
8.263608323E0,-3.185227513E-1,-3.700872660E0,-9.463157654E-1,3.833200844E0
8.271481858E0,-3.023938835E-1,-3.696131945E0,-9.111337662E-1,3.818769193E0
8.279446946E0,-3.070298135E-1,-3.686284304E0,-8.867654800E-1,3.803854925E0
8.287381516E0,-3.155168593E-1,-3.669358730E0,-8.616838455E-1,3.782359506E0
8.295255051E0,-3.091103137E-1,-3.631198406E0,-8.088350296E-1,3.733010200E0
8.303189621E0,-2.997891307E-1,-3.621758461E0,-7.497882843E-1,3.710685967E0
8.311063157E0,-2.919431031E-1,-3.570097923E0,-7.183437347E-1,3.653333776E0
8.318936692E0,-3.026360273E-1,-3.538235188E0,-6.732053757E-1,3.614402065E0
8.326871262E0,-2.984449863E-1,-3.512989521E0,-6.289319992E-1,3.581301474E0
8.334744797E0,-2.839086354E-1,-3.457263947E0,-6.144037247E-1,3.522892284E0
8.342679368E0,-2.880894840E-1,-3.422781467E0,-5.358104706E-1,3.476423649E0
8.350583420E0,-2.892527878E-1,-3.365703106E0,-4.482488632E-1,3.407719416E0
8.358548508E0,-2.777168155E-1,-3.308781624E0,-3.422231674E-1,3.338005267E0
8.366483078E0,-2.822249532E-1,-3.250349760E0,-2.700862885E-1,3.273739619E0
8.374356614E0,-2.815005779E-1,-3.191781998E0,-1.859407425E-1,3.209562097E0
8.382291184E0,-2.709230781E-1,-3.120676994E0,-8.731555939E-2,3.133631795E0
8.390164719E0,-2.646079659E-1,-3.059833527E0,-3.646087646E-2,3.071470003E0
8.398038254E0,-2.701807618E-1,-2.968913555E0,4.382324219E-2,2.981503952E0
8.405972825E0,-2.655622363E-1,-2.875688791E0,1.053667068E-1,2.889846271E0
8.413846360E0,-2.678652704E-1,-2.772249222E0,1.677608490E-1,2.790208102E0
8.421780930E0,-2.797093689E-1,-2.662942648E0,2.673072815E-1,2.690902090E0
8.429654465E0,-2.596446574E-1,-2.560210466E0,3.415355682E-1,2.595908227E0
8.437558518E0,-2.491239160E-1,-2.457824230E0,4.127016068E-1,2.504652728E0
8.445493088E0,-2.504583597E-1,-2.341115952E0,4.736871719E-1,2.401652103E0
8.453366623E0,-2.547167540E-1,-2.235976934E0,5.557785034E-1,2.318051600E0
8.461331711E0,-2.353512347E-1,-2.130582333E0,6.398429871E-1,2.237000297E0
8.469174729E0,-2.256504297E-1,-2.012628317E0,7.043399811E-1,2.144221459E0
8.477078782E0,-2.160195708E-1,-1.899736285E0,7.876024246E-1,2.067844285E0
8.485074387E0,-2.352715135E-1,-1.768975854E0,8.537206650E-1,1.978248526E0
8.492917405E0,-2.189655602E-1,-1.637831330E0,9.146871567E-1,1.888674132E0
8.500882493E0,-2.102630734E-1,-1.529386163E0,9.776306152E-1,1.827291497E0
8.508786545E0,-2.135020196E-1,-1.407949090E0,1.045042992E0,1.766357440E0
8.516751633E0,-1.802127957E-1,-1.202415943E0,1.127820015E0,1.658390406E0
8.524686203E0,-1.699826717E-1,-1.044382572E0,1.197189331E0,1.597777006E0
8.532590256E0,-1.674683094E-1,-9.157561064E-1,1.254712105E0,1.562356344E0
8.540494309E0,-1.619841456E-1,-7.691062689E-1,1.303329468E0,1.521982594E0
8.548367844E0,-1.519718766E-1,-6.466271877E-1,1.332408905E0,1.488803433E0
8.556241379E0,-1.396712065E-1,-5.107655525E-1,1.394508362E0,1.491657825E0
8.564206467E0,-1.370199025E-1,-3.728420734E-1,1.408314705E0,1.463262100E0
8.572080002E0,-1.320978701E-1,-2.402287722E-1,1.438428879E0,1.464321464E0
8.580045090E0,-1.177403331E-1,-8.834910393E-2,1.462941170E0,1.470328268E0
8.587918625E0,-9.620890021E-2,4.956483841E-2,1.448836327E0,1.452872853E0
8.595822678E0,-9.671837091E-2,1.689612865E-1,1.488443375E0,1.501121594E0
8.603757248E0,-1.018931866E-1,3.002500534E-1,1.498836517E0,1.532006273E0
8.611661301E0,-7.374107838E-2,4.476532936E-1,1.527127266E0,1.593094129E0
8.619595871E0,-6.011337042E-2,5.761754513E-1,1.535151482E0,1.640817430E0
8.627469407E0,-4.666429758E-2,7.027785778E-1,1.556410789E0,1.708358812E0
8.635342942E0,-5.261236429E-2,8.346164227E-1,1.532644272E0,1.745952777E0
8.643277512E0,-1.796120405E-2,9.404087067E-1,1.524264336E0,1.791109406E0
8.651151047E0,1.978695393E-3,1.098386288E0,1.542897224E0,1.893934581E0
8.659085618E0,1.602172852E-4,1.221103668E0,1.530563354E0,1.957988349E0
8.666959153E0,2.687853575E-2,1.334203720E0,1.511662483E0,2.016418976E0
8.674924241E0,5.090814829E-2,1.457754135E0,1.478381157E0,2.076836441E0
8.682858811E0,3.417253494E-2,1.588094234E0,1.471729279E0,2.165455640E0
8.690762864E0,6.249088049E-2,1.694464564E0,1.466851234E0,2.242045453E0
8.698727952E0,7.842129469E-2,1.798739314E0,1.420620918E0,2.293420331E0
8.706632004E0,9.412270784E-2,1.902635694E0,1.426995277E0,2.380167471E0
8.714505539E0,9.024977684E-2,2.013630390E0,1.405967712E0,2.457559273E0
8.722440110E0,1.291530132E-1,2.119453430E0,1.383596420E0,2.534384027E0
8.730344162E0,1.269503832E-1,2.199978828E0,1.357967377E0,2.588454875E0
8.738309250E0,1.386285424E-1,2.294349194E0,1.311490059E0,2.646367750E0
8.746152268E0,1.496675611E-1,2.364054680E0,1.313344955E0,2.708510639E0
8.754056321E0,1.624553204E-1,2.445312738E0,1.310858727E0,2.779261902E0
8.761990891E0,1.701741815E-1,2.502588987E0,1.284965515E0,2.818341226E0
8.769894944E0,1.799657941E-1,2.570453405E0,1.266017914E0,2.870961469E0
8.777860032E0,1.818506718E-1,2.639891386E0,1.239774704E0,2.922180267E0
8.785733567E0,2.021728754E-1,2.681043386E0,1.221132278E0,2.952969955E0
8.793637619E0,1.952220798E-1,2.717593908E0,1.182319641E0,2.970068694E0
8.801572190E0,1.973784566E-1,2.744503260E0,1.167469025E0,2.989019960E0
8.809445725E0,2.014167905E-1,2.783235312E0,1.159717560E0,3.021905416E0
8.817380295E0,2.072016597E-1,2.825003386E0,1.131841660E0,3.050351160E0
8.825284348E0,2.052046061E-1,2.826253176E0,1.111140251E0,3.043755674E0
8.833218918E0,2.049663067E-1,2.843793631E0,1.082884789E0,3.049887353E0
8.841184006E0,2.019847631E-1,2.818435907E0,1.086602211E0,3.027388837E0
8.849057541E0,2.091673613E-1,2.839983702E0,1.091390610E0,3.049654386E0
8.857022629E0,1.901130080E-1,2.826946497E0,1.078514099E0,3.031659960E0
8.864926682E0,1.847693324E-1,2.802937269E0,1.088754654E0,3.012637339E0
8.872800217E0,1.954353452E-1,2.784113169E0,1.072790146E0,2.990043446E0
8.880734787E0,1.791594625E-1,2.764181852E0,1.106525421E0,2.982817114E0
8.888638840E0,1.764630675E-1,2.691714525E0,1.123601913E0,2.922147765E0
8.896634446E0,1.780341268E-1,2.655534506E0,1.114648819E0,2.885481182E0
8.904477463E0,1.573059559E-1,2.620605230E0,1.134037018E0,2.859782666E0
8.912381516E0,1.600820422E-1,2.555083513E0,1.118064880E0,2.793590360E0
8.920346604E0,1.264171600E-1,2.485196829E0,1.148159981E0,2.740521103E0
8.928281174E0,1.112497449E-1,2.436053038E0,1.142425537E0,2.692929077E0
8.936185227E0,1.076803803E-1,2.356919527E0,1.185703278E0,2.640559975E0
8.944089280E0,8.436250687E-2,2.288285494E0,1.206141472E0,2.588077430E0
8.951993332E0,6.778550148E-2,2.202409029E0,1.212800980E0,2.515171291E0
8.959958420E0,5.078285933E-2,2.105342388E0,1.259048462E0,2.453619469E0
8.967862473E0,3.114664555E-2,2.000567913E0,1.254485130E0,2.361561990E0
8.975797043E0,3.491652012E-2,1.910690665E0,1.251295090E0,2.284227962E0
8.983701096E0,1.450181007E-4,1.826907754E0,1.269086838E0,2.224449002E0
8.991696702E0,-2.544385195E-2,1.713987470E0,1.281885147E0,2.140474239E0
8.999631272E0,-2.999311686E-2,1.610144019E0,1.317550659E0,2.080721771E0
9.007535325E0,-3.231567144E-2,1.511765122E0,1.332103729E0,2.015186948E0
9.015500412E0,-4.671221972E-2,1.388793111E0,1.365819931E0,1.948433325E0
9.023404465E0,-8.072787523E-2,1.256131172E0,1.382225990E0,1.869473509E0
9.031308518E0,-9.328472614E-2,1.143444538E0,1.401768684E0,1.811387009E0
9.039243088E0,-9.887224436E-2,1.012522459E0,1.421354294E0,1.747920330E0
9.047147141E0,-1.263699830E-1,8.784697056E-1,1.429368019E0,1.682489623E0
9.055112229E0,-1.537933052E-1,7.782096863E-1,1.426232338E0,1.631993069E0
9.062955246E0,-1.502941847E-1,6.428852081E-1,1.430644989E0,1.575637908E0
9.070859299E0,-1.875082552E-1,5.130665302E-1,1.440965652E0,1.541031674E0
9.078824387E0,-1.913758814E-1,3.868849277E-1,1.461552620E0,1.523955621E0
9.086728440E0,-2.216414511E-1,2.455041409E-1,1.454311371E0,1.491448551E0
9.094663010E0,-2.324743867E-1,1.051325798E-1,1.424573898E0,1.447241511E0
9.102567063E0,-2.531602085E-1,-3.168988228E-2,1.424557686E0,1.447224565E0
9.110471116E0,-2.617153823E-1,-1.508419514E-1,1.418926239E0,1.450723925E0
9.118405686E0,-2.750668824E-1,-2.772040367E-1,1.393185616E0,1.446882866E0
9.126309739E0,-2.979250252E-1,-4.260327816E-1,1.378802299E0,1.473553200E0
9.134244309E0,-2.944422960E-1,-5.501699448E-1,1.351746559E0,1.488825710E0
9.142148362E0,-3.290768564E-1,-7.024257183E-1,1.321639061E0,1.532456614E0
9.150113450E0,-3.349777758E-1,-8.190923929E-1,1.283930779E0,1.559359068E0
9.158078537E0,-3.336567879E-1,-9.615572691E-1,1.226485252E0,1.593795880E0
9.165952073E0,-3.513546288E-1,-1.103960633E0,1.190261841E0,1.660994402E0
9.173856125E0,-3.423487842E-1,-1.211976409E0,1.127431870E0,1.690323083E0
9.181729661E0,-3.644043803E-1,-1.351831555E0,1.092904091E0,1.776141452E0
9.189664231E0,-3.480921686E-1,-1.474602461E0,1.026901245E0,1.830340608E0
9.197598801E0,-3.843937516E-1,-1.594642401E0,9.892587662E-1,1.915535395E0
9.205472336E0,-3.823008835E-1,-1.721236944E0,9.608135223E-1,2.007977392E0
9.213406907E0,-3.750545979E-1,-1.849903822E0,8.840980530E-1,2.084331900E0
9.221280442E0,-3.940153718E-1,-1.950265884E0,8.332252502E-1,2.157092824E0
9.229153977E0,-4.007113576E-1,-2.068586588E0,7.626562119E-1,2.240817833E0
9.237088547E0,-3.856935203E-1,-2.169494390E0,6.747255325E-1,2.304499934E0
9.244962082E0,-4.041414261E-1,-2.275361776E0,5.980653763E-1,2.387107811E0
9.252896653E0,-3.961118460E-1,-2.376826763E0,4.990863800E-1,2.460751363E0
9.260800705E0,-4.021004438E-1,-2.487248898E0,4.039793015E-1,2.551723167E0
9.268704758E0,-4.042962790E-1,-2.568632603E0,3.336267471E-1,2.621571234E0
9.276669846E0,-3.956632614E-1,-2.636025429E0,2.518272400E-1,2.677423470E0
9.284573899E0,-3.882877231E-1,-2.715504408E0,2.013435364E-1,2.750503729E0
9.292538987E0,-3.972501159E-1,-2.796027660E0,1.075210571E-1,2.826152705E0
9.300443039E0,-3.747062087E-1,-2.881910801E0,2.873420715E-2,2.906310421E0
9.308408127E0,-3.804420829E-1,-2.921776295E0,-2.811431885E-2,2.946574844E0
9.316373215E0,-3.784446120E-1,-2.987960339E0,-1.349334717E-1,3.014852293E0
9.324246750E0,-3.831255436E-1,-3.048285246E0,-2.178058624E-1,3.079978493E0
9.332181321E0,-3.778080940E-1,-3.109568119E0,-3.344087601E-1,3.150235239E0
9.340054856E0,-3.647128940E-1,-3.155277729E0,-3.890924454E-1,3.200029058E0
9.347958909E0,-3.606048524E-1,-3.203744888E0,-4.611520767E-1,3.256789586E0
9.355893479E0,-3.486389816E-1,-3.237742424E0,-5.072841644E-1,3.295733965E0
9.363797532E0,-3.483043611E-1,-3.283447742E0,-5.731077194E-1,3.351238199E0
9.371732102E0,-3.286270797E-1,-3.318662405E0,-6.033077240E-1,3.389025837E0
9.379636155E0,-3.349683285E-1,-3.330812454E0,-6.818599701E-1,3.416350158E0
9.387601243E0,-3.339846134E-1,-3.377636909E0,-7.465219498E-1,3.475236947E0
9.395535813E0,-3.208806813E-1,-3.374016762E0,-7.947282791E-1,3.481170286E0
9.403409348E0,-3.120902181E-1,-3.408606529E0,-8.557462692E-1,3.528214910E0
9.411374436E0,-3.218066096E-1,-3.422910213E0,-9.149732590E-1,3.557674787E0
9.419247971E0,-2.951806486E-1,-3.424646854E0,-9.819097519E-1,3.574840479E0
9.427152024E0,-3.018370867E-1,-3.447555542E0,-1.011590004E0,3.605559482E0
9.435086594E0,-3.032466173E-1,-3.461547375E0,-1.003827095E0,3.616896124E0
9.442990647E0,-2.851611078E-1,-3.483694315E0,-1.035190582E0,3.645416640E0
9.450986252E0,-2.974372506E-1,-3.485835791E0,-1.027124405E0,3.646163000E0
9.458890305E0,-2.945950329E-1,-3.493293285E0,-1.034397125E0,3.655114447E0
9.466855393E0,-2.816312909E-1,-3.489202738E0,-1.040289879E0,3.651856372E0
9.474789963E0,-2.991463244E-1,-3.496264696E0,-1.042704582E0,3.660681384E0
9.482663498E0,-2.660496831E-1,-3.496401072E0,-1.053363800E0,3.661308261E0
9.490628586E0,-2.707324922E-1,-3.486758471E0,-1.043636322E0,3.649651694E0
9.498532639E0,-2.746260464E-1,-3.475187302E0,-1.016295433E0,3.631143436E0
9.506436692E0,-2.540192902E-1,-3.470628262E0,-9.876651764E-1,3.617356608E0
9.514371262E0,-2.637412250E-1,-3.465569496E0,-9.362344742E-1,3.599481401E0
9.522275315E0,-2.606241107E-1,-3.437282562E0,-9.124956131E-1,3.565877814E0
9.530209885E0,-2.641466856E-1,-3.423528671E0,-8.417549133E-1,3.535374573E0
9.538113938E0,-2.479756325E-1,-3.376749516E0,-8.010139465E-1,3.479303457E0
9.546109543E0,-2.407864332E-1,-3.344519615E0,-7.562189102E-1,3.437390959E0
9.554044114E0,-2.377129793E-1,-3.307367325E0,-7.241201401E-1,3.394044204E0
9.561917649E0,-2.412256449E-1,-3.275828123E0,-6.474514008E-1,3.347899792E0
9.569852219E0,-2.322507203E-1,-3.225054264E0,-6.239719391E-1,3.293061855E0
9.577695237E0,-2.467037290E-1,-3.189872742E0,-5.604019165E-1,3.248107318E0
9.585568772E0,-2.270287722E-1,-3.119956493E0,-4.566116333E-1,3.161354894E0
9.593503342E0,-2.427038401E-1,-3.087007999E0,-3.866987228E-1,3.120586394E0
9.601376877E0,-2.412164658E-1,-3.017663717E0,-3.072710037E-1,3.042843270E0
9.609311448E0,-2.319344282E-1,-2.934846401E0,-2.446660995E-1,2.954145981E0
9.617215500E0,-2.271118611E-1,-2.891670704E0,-1.555471420E-1,2.904743392E0
9.625180588E0,-2.148660868E-1,-2.810065269E0,-6.356143951E-2,2.818984624E0
9.633145676E0,-2.162576467E-1,-2.715753555E0,9.536743164E-7,2.724350334E0
9.641019211E0,-2.103243917E-1,-2.622820377E0,7.415866852E-2,2.632284671E0
9.648984299E0,-2.184740901E-1,-2.534953117E0,1.469678879E-1,2.548591335E0
9.656857834E0,-1.902622432E-1,-2.427904129E0,2.160034180E-1,2.444908108E0
9.664761887E0,-2.030039728E-1,-2.319200754E0,3.082008362E-1,2.348380401E0
9.672696457E0,-2.106772959E-1,-2.227376938E0,4.115238190E-1,2.274850501E0
9.680600510E0,-2.134730816E-1,-2.097801924E0,4.568176270E-1,2.157550929E0
9.688535080E0,-1.830089986E-1,-2.001890421E0,5.567092896E-1,2.085900953E0
9.696408616E0,-1.839570403E-1,-1.883009672E0,6.225957870E-1,1.991780895E0
9.704373703E0,-1.874183714E-1,-1.788667083E0,7.143774033E-1,1.935146158E0
9.712338791E0,-1.811757684E-1,-1.656877875E0,8.057498932E-1,1.851297341E0
9.720181809E0,-1.680051684E-1,-1.539540768E0,8.775558472E-1,1.780032521E0
9.728116379E0,-1.717586815E-1,-1.415881872E0,9.249639511E-1,1.699935537E0
9.736020432E0,-1.732719541E-1,-1.310318589E0,1.003136635E0,1.659289331E0
9.743924485E0,-1.654366255E-1,-1.174061060E0,1.056936264E0,1.588364856E0
9.751859055E0,-1.621688902E-1,-9.953029156E-1,1.099845886E0,1.492175464E0
9.759763108E0,-1.496588290E-1,-8.263263702E-1,1.174175262E0,1.443572160E0
9.767728196E0,-1.364138126E-1,-6.932439804E-1,1.239258766E0,1.426519623E0
9.775571213E0,-1.507016718E-1,-5.727233887E-1,1.276407242E0,1.407102882E0
9.783475266E0,-1.270210445E-1,-4.399448633E-1,1.315269470E0,1.392702268E0
9.791440354E0,-1.178551316E-1,-2.924562693E-1,1.356213570E0,1.392384914E0
9.799344407E0,-1.088423729E-1,-1.671665907E-1,1.387104988E0,1.401374889E0
9.807309494E0,-1.071542799E-1,-2.443468571E-2,1.414894104E0,1.419156235E0
9.815183030E0,-8.416771889E-2,9.794044495E-2,1.432447433E0,1.438256648E0
9.823026047E0,-9.499102831E-2,2.372169495E-1,1.451447487E0,1.473768972E0
9.830991135E0,-8.433014154E-2,3.729119301E-1,1.486460686E0,1.534842093E0
9.838895188E0,-6.346470118E-2,6.189832687E-1,1.536612511E0,1.657813639E0
9.846829758E0,-5.628210306E-2,6.453194618E-1,1.541400909E0,1.671981354E0
9.854703293E0,-5.557256937E-2,7.465910912E-1,1.570908546E0,1.740183964E0
9.862668381E0,-3.366148472E-2,8.752024174E-1,1.565143585E0,1.793540300E0
9.870633469E0,-2.599728107E-2,1.024446011E0,1.556041718E0,1.863177746E0
9.878507004E0,-2.828633785E-2,1.145375013E0,1.563939095E0,1.938708212E0
9.886441575E0,-1.888990402E-2,1.276906013E0,1.536215782E0,1.997699859E0
9.894315110E0,-1.546740532E-4,1.411185503E0,1.502101898E0,2.061008166E0
9.902280198E0,1.130729914E-2,1.519436836E0,1.484560966E0,2.124320460E0
9.910214768E0,2.024430037E-2,1.647208214E0,1.470024109E0,2.207866756E0
9.918118821E0,4.091155529E-2,1.758494139E0,1.466996193E0,2.290426428E0
9.926053391E0,3.019040823E-2,1.877276540E0,1.468153000E0,2.383390841E0
9.933957444E0,4.056149721E-2,1.973658204E0,1.440337181E0,2.443674106E0
9.941861496E0,8.666914701E-2,2.073115826E0,1.426182747E0,2.517800229E0
9.949826584E0,9.411901236E-2,2.184415340E0,1.420392990E0,2.607306084E0
9.957730637E0,8.917480707E-2,2.284727097E0,1.404167175E0,2.683209926E0
9.965665207E0,1.199450493E-1,2.377480030E0,1.379162788E0,2.751161228E0
9.973569260E0,1.168649793E-1,2.433493614E0,1.352189064E0,2.786389036E0
9.981473313E0,1.276462674E-1,2.527561426E0,1.356876373E0,2.871580371E0
9.989438401E0,1.235666275E-1,2.602783442E0,1.335914612E0,2.928210751E0
9.997311936E0,1.381510496E-1,2.664555788E0,1.362514496E0,2.995895361E0
1.000524651E1,1.572799087E-1,2.747587442E0,1.319849014E0,3.052208241E0
1.001315056E1,1.640407443E-1,2.785331964E0,1.279886246E0,3.069705575E0
1.002111565E1,1.795171499E-1,2.830764055E0,1.243802071E0,3.097175348E0
1.002905022E1,1.609354019E-1,2.854918718E0,1.222232819E0,3.109712873E0
1.003695427E1,1.823723912E-1,2.903634310E0,1.187681198E0,3.142441491E0
1.004488884E1,1.745578051E-1,2.916090250E0,1.171975136E0,3.147630616E0
1.005276238E1,1.806631088E-1,2.957281351E0,1.177659035E0,3.188264881E0
1.006060539E1,1.813094616E-1,2.965873957E0,1.146424294E0,3.184897190E0
1.006857048E1,1.957727671E-1,2.986032248E0,1.145870209E0,3.204330522E0
1.007647453E1,1.903882623E-1,2.982447863E0,1.152360916E0,3.202995258E0
1.008440910E1,1.720913053E-1,2.979686260E0,1.148166656E0,3.197879344E0
1.009228264E1,1.819302440E-1,2.953188658E0,1.155838966E0,3.176536727E0
1.010012566E1,1.818922162E-1,2.929341555E0,1.156300545E0,3.154545557E0
1.010812126E1,1.643487215E-1,2.918326139E0,1.148598671E0,3.140528119E0
1.011599480E1,1.703525782E-1,2.883787394E0,1.153010368E0,3.110415188E0
1.012392937E1,1.540742517E-1,2.842573404E0,1.162423134E0,3.074929264E0
1.013183342E1,1.632673740E-1,2.800509691E0,1.161823273E0,3.036337281E0
1.013973747E1,1.599337459E-1,2.746987104E0,1.180751801E0,2.994276502E0
1.014773308E1,1.371064782E-1,2.691211462E0,1.164049149E0,2.935375230E0
1.015557610E1,1.327131987E-1,2.656285048E0,1.152065277E0,2.898399118E0
1.016351067E1,1.301741600E-1,2.571717978E0,1.140794754E0,2.816396872E0
1.017141472E1,1.223037243E-1,2.511645079E0,1.180571556E0,2.777961195E0
1.017937981E1,8.981382847E-2,2.422328711E0,1.208740234E0,2.708652037E0
1.018731438E1,7.120466232E-2,2.333853960E0,1.240443230E0,2.643982567E0
1.019518791E1,7.146388292E-2,2.235075474E0,1.273781776E0,2.573555804E0
1.020312248E1,4.975628853E-2,2.148407459E0,1.284216881E0,2.503466256E0
1.021099602E1,3.969109058E-2,2.046205044E0,1.298691750E0,2.423866895E0
1.021890007E1,1.249259710E-2,1.951047063E0,1.322532654E0,2.357081527E0
1.022686516E1,-5.674839020E-3,1.848865390E0,1.340578079E0,2.283743641E0
1.023473869E1,-1.457959414E-2,1.736499429E0,1.358426094E0,2.204759462E0
1.024267326E1,-2.129769325E-2,1.635254502E0,1.361718178E0,2.128094752E0
1.025054680E1,-4.993754625E-2,1.518790603E0,1.396033287E0,2.063523102E0
1.025851189E1,-6.662768126E-2,1.409773350E0,1.406835556E0,1.992758497E0
1.026647698E1,-7.425618172E-2,1.283263445E0,1.426501274E0,1.920204399E0
1.027438103E1,-1.010361910E-1,1.164731503E0,1.442200661E0,1.856542628E0
1.028231560E1,-1.087494493E-1,1.048895836E0,1.477758408E0,1.815428001E0
1.029021965E1,-1.357143521E-1,9.004580975E-1,1.448894501E0,1.711297299E0
1.029812370E1,-1.507018507E-1,7.881228924E-1,1.442430496E0,1.650592160E0
1.030611931E1,-1.778331399E-1,6.437859535E-1,1.400670052E0,1.551760798E0
1.031399284E1,-1.955154240E-1,5.131952763E-1,1.433934212E0,1.535500894E0
1.032192741E1,-2.035406828E-1,3.931906223E-1,1.439800262E0,1.506337436E0
1.032983147E1,-2.308095396E-1,2.697877884E-1,1.463308334E0,1.505765512E0
1.033779656E1,-2.219924033E-1,1.107594967E-1,1.437849045E0,1.459094983E0
1.034573112E1,-2.467403114E-1,-3.246092796E-2,1.415894508E0,1.437599302E0
1.035363518E1,-2.718572021E-1,-2.957545519E-1,1.391462326E0,1.448290198E0
1.036156975E1,-2.910107970E-1,-2.861777544E-1,1.384280205E0,1.443196687E0
1.036944328E1,-2.891263962E-1,-4.170359373E-1,1.331374168E0,1.424805328E0
1.037728630E1,-2.918776274E-1,-5.576481819E-1,1.337882996E0,1.478544877E0
1.038525139E1,-2.967830300E-1,-6.876096725E-1,1.269570351E0,1.474006820E0
1.039312492E1,-3.157907128E-1,-8.229357004E-1,1.219944954E0,1.505062335E0
1.040105949E1,-3.347156048E-1,-9.535741806E-1,1.172307968E0,1.547786880E0
1.040893303E1,-3.344115019E-1,-1.107073545E0,1.124142647E0,1.612804879E0
1.041680656E1,-3.554949164E-1,-1.199801683E0,1.078073502E0,1.651709172E0
1.042477165E1,-3.430066407E-1,-1.336313725E0,1.048307419E0,1.732725128E0
1.043267571E1,-3.542469740E-1,-1.458136797E0,9.702816010E-1,1.786924795E0
1.044064079E1,-3.677307367E-1,-1.554611921E0,9.134483337E-1,1.840226067E0
1.044854485E1,-3.689442575E-1,-1.700895548E0,8.489952087E-1,1.936480931E0
1.045644890E1,-3.675964475E-1,-1.811536908E0,7.984590530E-1,2.013536684E0
1.046444450E1,-3.685612679E-1,-1.925948501E0,7.306289673E-1,2.092590195E0
1.047228752E1,-3.670203388E-1,-2.031053543E0,6.334724426E-1,2.158974238E0
1.048025261E1,-3.604639769E-1,-2.123762369E0,5.380134583E-1,2.220306141E0
1.048815666E1,-3.725850284E-1,-2.344885111E0,4.330787659E-1,2.413475296E0
1.049612175E1,-3.606140316E-1,-2.313760519E0,3.468875885E-1,2.367247604E0
1.050405632E1,-3.639381528E-1,-2.399467468E0,2.816705704E-1,2.443201469E0
1.051196037E1,-3.445696533E-1,-2.462427139E0,2.169380188E-1,2.495864132E0
1.051989494E1,-3.707257211E-1,-2.649915457E0,1.475820541E-1,2.679789162E0
1.052779900E1,-3.372068703E-1,-2.621185064E0,8.772754669E-2,2.644241997E0
1.053564201E1,-3.427111804E-1,-2.688990116E0,2.174377441E-3,2.710742246E0
1.054363762E1,-3.310081363E-1,-2.762864590E0,-7.102203369E-2,2.783528562E0
1.055151116E1,-3.430657685E-1,-2.827617168E0,-1.533908844E-1,2.852479927E0
1.055944572E1,-3.474449515E-1,-2.869635582E0,-2.380867004E-1,2.900381293E0
1.056731926E1,-3.179446459E-1,-2.915536404E0,-3.491716385E-1,2.953533841E0
1.057519280E1,-2.999210358E-1,-2.967163801E0,-3.911018372E-1,3.007818861E0
1.058315788E1,-3.146646917E-1,-3.014782429E0,-4.885377884E-1,3.070276230E0
1.059106194E1,-3.098301291E-1,-3.056413412E0,-5.625457764E-1,3.123157922E0
1.059899651E1,-2.759296894E-1,-3.068278551E0,-6.008281708E-1,3.138704343E0
1.060690056E1,-2.801428735E-1,-3.114645004E0,-6.801338196E-1,3.200324287E0
1.061480461E1,-2.771256566E-1,-3.143588066E0,-7.453241348E-1,3.242599671E0
1.062276970E1,-2.596113086E-1,-3.181425571E0,-7.725076675E-1,3.284149021E0
1.063067375E1,-2.897782326E-1,-3.197971344E0,-8.386259079E-1,3.318777720E0
1.063860832E1,-2.594396770E-1,-3.213357449E0,-8.956604004E-1,3.345920291E0
1.064651238E1,-2.453876436E-1,-3.230743647E0,-9.746294022E-1,3.383463030E0
1.065447746E1,-2.477630675E-1,-3.252658844E0,-1.030537605E0,3.420991647E0
1.066244255E1,-2.523101866E-1,-3.256738663E0,-1.043959618E0,3.429265057E0
1.067028557E1,-2.397298813E-1,-3.266492844E0,-1.072474480E0,3.446396295E0
1.067825066E1,-2.288901359E-1,-3.280141592E0,-1.073393822E0,3.458886216E0
1.068612419E1,-2.198191285E-1,-3.285172462E0,-1.063115120E0,3.459897732E0
1.069396721E1,-2.341614664E-1,-3.302647591E0,-1.068100929E0,3.478958507E0
1.070196282E1,-2.166716456E-1,-3.323734283E0,-1.057590485E0,3.494660759E0
1.070986687E1,-2.201582640E-1,-3.299907446E0,-1.038401604E0,3.466429965E0
1.071780144E1,-2.279725075E-1,-3.285756350E0,-1.039367676E0,3.453759027E0
1.072567497E1,-2.038477063E-1,-3.303056240E0,-1.010660172E0,3.460226639E0
1.073354851E1,-2.077082396E-1,-3.272588253E0,-1.040380478E0,3.440256985E0
1.074151360E1,-2.013922632E-1,-3.273105860E0,-1.025604248E0,3.435934354E0
1.074941765E1,-2.133029103E-1,-3.264649868E0,-9.881849289E-1,3.417593648E0
1.075738274E1,-1.961200833E-1,-3.243897438E0,-9.277706146E-1,3.379658561E0
1.076528679E1,-1.996146142E-1,-3.218750954E0,-9.020929337E-1,3.348727424E0
1.077319084E1,-1.833589673E-1,-3.206026554E0,-8.291902542E-1,3.316592115E0
1.078115593E1,-1.906093657E-1,-3.156966686E0,-7.474737167E-1,3.249844234E0
1.078899895E1,-1.778008789E-1,-3.118532419E0,-7.264575958E-1,3.206960904E0
1.079696404E1,-1.837639511E-1,-3.087357998E0,-6.772003174E-1,3.166093629E0
1.080483757E1,-1.676632613E-1,-3.057464600E0,-6.285419464E-1,3.125902386E0
1.081280266E1,-1.799277812E-1,-2.992739677E0,-5.636348724E-1,3.050663707E0
1.082073723E1,-1.820013374E-1,-2.940740585E0,-4.967489243E-1,2.987948991E0
1.082858025E1,-1.837302148E-1,-2.898476839E0,-3.748016357E-1,2.928378569E0
1.083651482E1,-1.729243845E-1,-2.844941139E0,-2.888965607E-1,2.864795656E0
1.084438835E1,-1.807136536E-1,-2.772955894E0,-2.077283859E-1,2.786591628E0
1.085226189E1,-1.835359335E-1,-2.701746941E0,-1.092834473E-1,2.710178009E0
1.086019646E1,-1.883598268E-1,-2.635222435E0,1.441955566E-3,2.641946022E0
1.086806999E1,-1.880385429E-1,-2.532588720E0,6.503868103E-2,2.540392519E0
1.087600456E1,-1.661946476E-1,-2.437559605E0,1.224212646E-1,2.446283805E0
1.088390862E1,-1.677700877E-1,-2.343505859E0,1.951789856E-1,2.357596520E0
1.089178215E1,-1.790607572E-1,-2.243638039E0,2.669191360E-1,2.266543674E0
1.089971672E1,-1.782813370E-1,-2.128276587E0,3.305902481E-1,2.161165282E0
1.090759026E1,-1.725116372E-1,-2.038437843E0,4.078874588E-1,2.085991679E0
1.091552483E1,-1.645672321E-1,-1.941128135E0,4.846019745E-1,2.007461054E0
1.092336784E1,-1.614954472E-1,-1.825732946E0,5.559597015E-1,1.915325758E0
1.093124138E1,-1.730777323E-1,-1.707676291E0,6.674814224E-1,1.841642112E0
1.093920647E1,-1.679924726E-1,-1.603015423E0,7.665319443E-1,1.784783219E0
1.094711052E1,-1.653513312E-1,-1.498453736E0,8.507175446E-1,1.731018487E0
1.095504509E1,-1.795665920E-1,-1.385587215E0,9.081306458E-1,1.666372516E0
1.096291862E1,-1.533804238E-1,-1.265056372E0,9.842605591E-1,1.610174533E0
1.097088371E1,-1.537484825E-1,-1.143015027E0,1.021557808E0,1.540682415E0
1.097881828E1,-1.517838836E-1,-1.011076689E0,1.080206871E0,1.487333622E0
1.098672234E1,-1.540863216E-1,-8.530198336E-1,1.164527893E0,1.451726780E0
1.099465691E1,-1.413608193E-1,-6.978653669E-1,1.206012726E0,1.400523347E0
1.100253044E1,-1.323880553E-1,-5.870242119E-1,1.274352074E0,1.409289619E0
1.101043449E1,-1.334619820E-1,-4.430251122E-1,1.308059692E0,1.387480994E0
1.101836906E1,-1.491192281E-1,-3.200029135E-1,1.363013268E0,1.407992747E0
1.102621208E1,-1.027308702E-1,-1.741250753E-1,1.410203934E0,1.424622163E0
1.103417717E1,-1.093606353E-1,-5.375349522E-2,1.442312241E0,1.447450789E0
1.104205071E1,-1.062197089E-1,6.907057762E-2,1.466853142E0,1.472315018E0
1.105001579E1,-1.032795906E-1,2.181797028E-1,1.497602463E0,1.516931835E0
1.105795036E1,-9.554874897E-2,3.487939835E-1,1.525682449E0,1.567958463E0
1.106585442E1,-9.282594919E-2,4.789516926E-1,1.554987907E0,1.629723527E0
1.107378899E1,-7.112622261E-2,6.069681644E-1,1.590403557E0,1.703776032E0
1.108169304E1,-5.199480057E-2,7.476456165E-1,1.600858688E0,1.767604585E0
1.108959709E1,-6.384080648E-2,8.779513836E-1,1.597832680E0,1.824265209E0
1.109759270E1,-5.423551798E-2,1.018402338E0,1.615154266E0,1.910185362E0
1.110543572E1,-4.235559702E-2,1.139583588E0,1.604650497E0,1.968590351E0
1.111340080E1,-3.065830469E-2,1.275394917E0,1.591860771E0,2.039998245E0
1.112124382E1,-1.923203468E-2,1.390233040E0,1.584780693E0,2.108233294E0
1.112923943E1,-1.035010815E-2,1.506139278E0,1.606584549E0,2.202198121E0
1.113717400E1,1.046580076E-2,1.631431341E0,1.569009781E0,2.263508217E0
1.114507805E1,4.733979702E-3,1.749808073E0,1.535817146E0,2.328214984E0
1.115301262E1,3.468036652E-2,1.876006246E0,1.521368027E0,2.415608171E0
1.116088616E1,4.767823219E-2,1.984615207E0,1.516345024E0,2.498053835E0
1.116879021E1,6.521636248E-2,2.086573124E0,1.491454124E0,2.565633641E0
1.117672478E1,8.241027594E-2,2.179656029E0,1.506479263E0,2.650881293E0
1.118456780E1,7.053124905E-2,2.266410351E0,1.499112129E0,2.718258213E0
1.119253288E1,1.063428521E-1,2.375422478E0,1.495512962E0,2.809003341E0
1.120040642E1,1.011475921E-1,2.472002983E0,1.471039772E0,2.878365438E0
1.120837151E1,1.075529456E-1,2.536838055E0,1.444609642E0,2.921303129E0
1.121630608E1,1.279065609E-1,2.629119158E0,1.419337273E0,2.990509309E0
1.122424065E1,1.499276757E-1,2.693464041E0,1.448780060E0,3.062056582E0
1.123217522E1,1.644601226E-1,2.755525351E0,1.402028084E0,3.096070063E0
1.124004875E1,1.428595185E-1,2.831746817E0,1.355428696E0,3.142671765E0
1.124795280E1,1.540963650E-1,2.882102251E0,1.322290421E0,3.174698573E0
1.125591789E1,1.552475691E-1,2.937349081E0,1.296415329E0,3.214469495E0
1.126379143E1,1.677157879E-1,2.966089964E0,1.291933060E0,3.239584740E0
1.127172600E1,1.865991950E-1,3.009854078E0,1.262417793E0,3.269210840E0
1.127963005E1,1.810828447E-1,3.034643412E0,1.256759644E0,3.289573899E0
1.128759514E1,1.870662570E-1,3.054321051E0,1.248297691E0,3.304862779E0
1.129552971E1,1.684606671E-1,3.068040609E0,1.222154617E0,3.306798162E0
1.130343376E1,1.972206235E-1,3.067293406E0,1.253125191E0,3.319263104E0
1.131139885E1,1.869594455E-1,3.076102972E0,1.223911285E0,3.315919505E0
1.131927239E1,1.949136257E-1,3.062165022E0,1.229615211E0,3.305570981E0
1.132714592E1,1.857076287E-1,3.057996035E0,1.263884544E0,3.314095836E0
1.133508049E1,1.902146339E-1,3.031007051E0,1.251699448E0,3.284803930E0
1.134295403E1,1.655144691E-1,2.999603033E0,1.239508629E0,3.249830001E0
1.135088860E1,1.761105657E-1,2.973416090E0,1.248923302E0,3.229864949E0
1.135879265E1,1.475642920E-1,2.941292048E0,1.231248856E0,3.192013138E0
1.136666618E1,1.425564289E-1,2.907480478E0,1.245050430E0,3.166056797E0
1.137463127E1,1.417012811E-1,2.840266943E0,1.244576454E0,3.104217472E0
1.138250481E1,1.449478865E-1,2.791451693E0,1.231852531E0,3.054615050E0
1.139043938E1,1.094694734E-1,2.745683908E0,1.238853455E0,3.014219895E0
1.139834343E1,1.189444065E-1,2.659716845E0,1.251216888E0,2.941731661E0
1.140621696E1,9.913188219E-2,2.590281725E0,1.235165596E0,2.871414389E0
1.141415154E1,9.075069427E-2,2.526303530E0,1.282237053E0,2.834532955E0
1.142205559E1,8.194458485E-2,2.444338083E0,1.294623375E0,2.767228444E0
1.142999016E1,6.318390369E-2,2.347783089E0,1.307688713E0,2.688145719E0
1.143786369E1,3.944760561E-2,2.247699261E0,1.353391647E0,2.624000197E0
1.144582878E1,3.204834461E-2,2.144675255E0,1.377012253E0,2.548886382E0
1.145376335E1,1.446920633E-2,2.055290222E0,1.403842926E0,2.489016315E0
1.146163689E1,1.462042332E-3,1.946855187E0,1.406715393E0,2.401894139E0
1.146957146E1,-2.130943537E-2,1.828735232E0,1.450255394E0,2.334088120E0
1.147747551E1,-3.486829996E-2,1.742101312E0,1.437992096E0,2.259193229E0
1.148537956E1,-6.746804714E-2,1.631601214E0,1.449924469E0,2.183793815E0
1.149334465E1,-7.635450363E-2,1.515794754E0,1.449964523E0,2.099014260E0
1.150124870E1,-1.166212559E-1,1.365266800E0,1.464296341E0,2.005422082E0
1.150918327E1,-1.042541265E-1,1.267646790E0,1.491157532E0,1.959935736E0
1.151708733E1,-1.137493253E-1,1.142173290E0,1.489311218E0,1.880304932E0
1.152499138E1,-1.447827220E-1,1.016627312E0,1.471351624E0,1.794259939E0
1.153292595E1,-1.519495845E-1,9.027357101E-1,1.477974892E0,1.738513796E0
1.154079948E1,-1.713980734E-1,7.851567268E-1,1.465881348E0,1.671722618E0
1.154873406E1,-1.786663532E-1,6.449942589E-1,1.476673126E0,1.621265796E0
1.155663811E1,-1.834738851E-1,5.197513103E-1,1.473603249E0,1.573311992E0
1.156451164E1,-2.241937518E-1,3.736469746E-1,1.474222183E0,1.537272242E0
1.157244621E1,-2.335764468E-1,2.426974773E-1,1.471437454E0,1.509499322E0
1.158035027E1,-2.309860587E-1,1.063690186E-1,1.462581635E0,1.484524828E0
1.158828484E1,-2.426750362E-1,-1.280832291E-2,1.436006546E0,1.456423711E0
1.159618889E1,-2.639427781E-1,-1.557514668E-1,1.401310921E0,1.434432503E0
1.160415398E1,-2.707364857E-1,-3.043303490E-1,1.354038239E0,1.413978344E0
1.161208855E1,-2.702207863E-1,-4.145989418E-1,1.325077057E0,1.414475437E0
1.161996208E1,-2.957465053E-1,-5.581492186E-1,1.259855270E0,1.409337379E0
1.162792717E1,-3.091419935E-1,-7.022968531E-1,1.220477104E0,1.441649751E0
1.163583122E1,-3.080639541E-1,-8.185797930E-1,1.185373306E0,1.473121228E0
1.164370476E1,-3.020873964E-1,-9.320180416E-1,1.145135880E0,1.507066889E0
1.165166985E1,-3.248910606E-1,-1.067862511E0,1.099606514E0,1.566850034E0
1.165951286E1,-3.162649572E-1,-1.188636899E0,1.032189369E0,1.605707350E0
1.166747795E1,-3.434541821E-1,-1.308439493E0,9.524354935E-1,1.654420760E0
1.167538200E1,-3.274371922E-1,-1.431078196E0,8.817710876E-1,1.712518662E0
1.168334709E1,-3.352752924E-1,-1.544516921E0,8.322734833E-1,1.786231002E0
1.169128166E1,-3.429108262E-1,-1.665593028E0,7.702798843E-1,1.866847361E0
1.169915520E1,-3.312066793E-1,-1.782812357E0,7.126111984E-1,1.948315294E0
1.170708977E1,-3.312811852E-1,-1.871713519E0,6.471414566E-1,2.007946908E0
1.171499382E1,-3.314760327E-1,-1.983760357E0,5.785913467E-1,2.092832879E0
1.172286736E1,-3.290058076E-1,-2.078466892E0,4.973011017E-1,2.162308449E0
1.173080193E1,-3.258720636E-1,-2.186752081E0,4.054546356E-1,2.247770168E0
1.173867546E1,-3.144095540E-1,-2.264804363E0,2.667798996E-1,2.302034684E0
1.174664055E1,-3.065306246E-1,-2.324517012E0,2.196912766E-1,2.354910745E0
1.175454460E1,-2.953364253E-1,-2.399835587E0,1.155986786E-1,2.420701861E0
1.176247917E1,-3.008718193E-1,-2.459931374E0,3.259181976E-2,2.478477041E0
1.177041374E1,-2.939604521E-1,-2.539419651E0,-3.052139282E-2,2.556559498E0
1.177831780E1,-2.985900044E-1,-2.622403622E0,-1.075572968E-1,2.641538438E0
1.178625237E1,-2.860261798E-1,-2.664560318E0,-1.889877319E-1,2.686523595E0
1.179412590E1,-2.850965559E-1,-2.736662388E0,-2.870473862E-1,2.766405117E0
1.180202995E1,-2.980677783E-1,-2.781342030E0,-3.515996933E-1,2.819278317E0
1.180996452E1,-2.773065269E-1,-2.820957661E0,-4.569005966E-1,2.871142488E0
1.181789909E1,-2.582500279E-1,-2.863348007E0,-5.147228241E-1,2.920683905E0
1.182586418E1,-2.675307393E-1,-2.894797802E0,-5.682086945E-1,2.962142490E0
1.183373772E1,-2.454874367E-1,-2.942939758E0,-6.264820099E-1,3.018880291E0
1.184161125E1,-2.351058722E-1,-2.962151766E0,-6.899919510E-1,3.050525651E0
1.184960686E1,-2.294483781E-1,-2.995802879E0,-7.464084625E-1,3.095901653E0
1.185748039E1,-2.141137272E-1,-3.024311543E0,-8.006324768E-1,3.135812073E0
1.186544548E1,-2.103962600E-1,-3.054847717E0,-8.650960922E-1,3.181941610E0
1.187328850E1,-2.276670337E-1,-3.070608854E0,-9.202899933E-1,3.213627963E0
1.188122307E1,-2.179186940E-1,-3.097812176E0,-9.691057205E-1,3.253166877E0
1.188918816E1,-1.984311789E-1,-3.093193531E0,-1.013583183E0,3.261069153E0
1.189706169E1,-2.075423300E-1,-3.118401527E0,-1.049083710E0,3.296676893E0
1.190496574E1,-1.922352910E-1,-3.135527611E0,-1.068836212E0,3.318267417E0
1.191286980E1,-1.858316064E-1,-3.117951632E0,-1.094016075E0,3.309535758E0
1.192083489E1,-1.885239780E-1,-3.153768539E0,-1.084041595E0,3.340201112E0
1.192876946E1,-1.906004101E-1,-3.150277138E0,-1.106308937E0,3.344322656E0
1.193664299E1,-1.490570903E-1,-3.164268732E0,-1.105424881E0,3.355112337E0
1.194460808E1,-1.908442527E-1,-3.157354593E0,-1.102963448E0,3.349901181E0
1.195251213E1,-1.673273146E-1,-3.160831213E0,-1.094569206E0,3.349169171E0
1.196035515E1,-1.624610871E-1,-3.154286861E0,-1.053673744E0,3.329586696E0
1.196832024E1,-1.617430001E-1,-3.145342112E0,-1.013689995E0,3.308610766E0
1.197622429E1,-1.671978831E-1,-3.122785091E0,-1.013207436E0,3.287298460E0
1.198415886E1,-1.698070019E-1,-3.099790573E0,-9.944982529E-1,3.259840915E0
1.199203240E1,-1.623708159E-1,-3.081337690E0,-9.287490845E-1,3.222356452E0
1.199990593E1,-1.567035317E-1,-3.064164639E0,-9.046459198E-1,3.198756816E0
1.200787102E1,-1.434127539E-1,-3.044323444E0,-8.669033051E-1,3.168594924E0
1.201577507E1,-1.631077826E-1,-3.010131121E0,-8.058214188E-1,3.120391269E0
1.202374016E1,-1.509018093E-1,-2.974180222E0,-7.551345825E-1,3.072254479E0
1.203158318E1,-1.500805318E-1,-2.911268473E0,-7.001857758E-1,2.998044097E0
1.203948723E1,-1.561347842E-1,-2.889084578E0,-6.407737732E-1,2.963406620E0
1.204745232E1,-1.496991217E-1,-2.840508461E0,-5.771579742E-1,2.902414421E0
1.205532585E1,-1.405139863E-1,-2.794157028E0,-5.304126740E-1,2.847524413E0
1.206326042E1,-1.453837305E-1,-2.735472918E0,-4.405860901E-1,2.774538631E0
1.207113396E1,-1.615147889E-1,-2.669901848E0,-3.556280136E-1,2.698320624E0
1.207909905E1,-1.606298834E-1,-2.597058296E0,-2.751407623E-1,2.616527507E0
1.208703362E1,-1.472840309E-1,-2.540343761E0,-1.705350876E-1,2.550317868E0
1.209493767E1,-1.673048139E-1,-2.462658405E0,-8.195877075E-2,2.469695237E0
1.210287224E1,-1.297510564E-1,-2.377589941E0,-1.173210144E-2,2.381156632E0
1.211077629E1,-1.421771348E-1,-2.289549589E0,6.902599335E-2,2.294998093E0
1.211868034E1,-1.520472467E-1,-2.190526009E0,1.438217163E-1,2.200501590E0
1.212661491E1,-1.356410384E-1,-2.087783575E0,2.223682404E-1,2.103969197E0
1.213454948E1,-1.334365606E-1,-1.989949226E0,2.808465958E-1,2.014094846E0
1.214254509E1,-1.382163167E-1,-1.876994133E0,3.577642441E-1,1.915778166E0
1.215038811E1,-1.574458778E-1,-1.784610987E0,4.268980026E-1,1.841702333E0
1.215829216E1,-1.458167732E-1,-1.663412571E0,5.361547470E-1,1.753757630E0
1.216628777E1,-1.511239707E-1,-1.567006588E0,6.185417175E-1,1.691431925E0
1.217416130E1,-1.374600232E-1,-1.455826998E0,7.147789001E-1,1.627647499E0
1.218212639E1,-1.356389225E-1,-1.325060010E0,7.818031311E-1,1.544473400E0
1.218996941E1,-1.435433328E-1,-1.222477198E0,8.651237488E-1,1.504491372E0
1.219787346E1,-1.470107734E-1,-1.118510962E0,9.406843185E-1,1.468865523E0
1.220586906E1,-1.482920349E-1,-9.817944765E-1,1.015899658E0,1.420550259E0
1.221371208E1,-1.072867215E-1,-8.176574707E-1,1.072150230E0,1.352619790E0
1.222167717E1,-1.423993409E-1,-6.575628519E-1,1.135232925E0,1.319628839E0
1.222955071E1,-1.216418743E-1,-5.036696196E-1,1.202534676E0,1.309415701E0
1.223754631E1,-1.160497963E-1,-3.878846169E-1,1.260934830E0,1.324340846E0
1.224548088E1,-1.153872907E-1,-2.574015856E-1,1.309439659E0,1.339478266E0
1.225338493E1,-1.128820777E-1,-1.264970303E-1,1.369150162E0,1.379607200E0
1.226131950E1,-1.223991513E-1,-3.506422043E-3,1.406764030E0,1.412083172E0
1.226919304E1,-1.104912460E-1,1.214618683E-1,1.441488266E0,1.450810023E0
1.227706658E1,-9.870177507E-2,2.659428120E-1,1.441806793E0,1.469446987E0
1.228500114E1,-9.641706944E-2,3.857464790E-1,1.453481674E0,1.506886052E0
1.229287468E1,-8.714389801E-2,5.418515205E-1,1.502480507E0,1.599576445E0
1.230083977E1,-9.479939938E-2,6.624746323E-1,1.521709442E0,1.662365541E0
1.230868279E1,-9.282827377E-2,7.971408367E-1,1.564280510E0,1.758130859E0
1.231658684E1,-9.831118584E-2,9.111981392E-1,1.597950935E0,1.842116807E0
1.232452141E1,-7.033485174E-2,1.049632549E0,1.611236572E0,1.924255381E0
1.233242546E1,-5.181717873E-2,1.183877707E0,1.630478859E0,2.015617214E0
1.234036003E1,-3.353846073E-2,1.314255476E0,1.604581833E0,2.074385486E0
1.234826408E1,-4.886639118E-2,1.413620710E0,1.620192528E0,2.150752255E0
1.235616814E1,-3.095406294E-2,1.567255974E0,1.645750999E0,2.272827709E0
1.236416374E1,-1.063281298E-2,1.688723803E0,1.647546768E0,2.359303179E0
1.237200676E1,4.753410816E-3,1.809563637E0,1.618436813E0,2.427731630E0
1.237997185E1,-1.110911369E-2,1.916913748E0,1.605827332E0,2.500672539E0
1.238787590E1,9.029865265E-3,2.037552357E0,1.578665733E0,2.577573790E0
1.239584099E1,4.076731205E-2,2.137487888E0,1.558139801E0,2.645433062E0
1.240374504E1,3.400683403E-2,2.257853508E0,1.551512718E0,2.739753756E0
1.241161858E1,6.254529953E-2,2.353974819E0,1.526766777E0,2.806443685E0
1.241961418E1,7.198554277E-2,2.453968525E0,1.506197929E0,2.880238817E0
1.242748772E1,7.148408890E-2,2.536897182E0,1.467240334E0,2.931510103E0
1.243539177E1,9.473079443E-2,2.626801014E0,1.462476730E0,3.007972021E0
1.244332634E1,1.081973314E-1,2.700173378E0,1.453679085E0,3.068521764E0
1.245123039E1,9.692639112E-2,2.781800985E0,1.466199875E0,3.146037749E0
1.245919548E1,1.163885593E-1,2.839776278E0,1.476828575E0,3.202951489E0
1.246703850E1,1.333547235E-1,2.914710283E0,1.449520111E0,3.257979139E0
1.247494255E1,1.260226369E-1,2.966126204E0,1.428455353E0,3.294582076E0
1.248287712E1,1.325975657E-1,3.020375967E0,1.402853012E0,3.332904090E0
1.249078117E1,1.432635784E-1,3.055583715E0,1.403555870E0,3.365573558E0
1.249871574E1,1.651420593E-1,3.098786116E0,1.364884377E0,3.390082101E0
1.250661980E1,1.674655676E-1,3.137443781E0,1.359646797E0,3.423483257E0
1.251449333E1,1.669430733E-1,3.163925409E0,1.325281143E0,3.434336048E0
1.252242790E1,1.587899327E-1,3.177034140E0,1.320912361E0,3.444353297E0
1.253033196E1,1.572849154E-1,3.190505266E0,1.292438507E0,3.445933791E0
1.253826653E1,1.696091294E-1,3.201419592E0,1.273059845E0,3.449425464E0
1.254617058E1,1.761308908E-1,3.199095488E0,1.271671295E0,3.447083102E0
1.255413567E1,1.534494162E-1,3.213505268E0,1.265093803E0,3.456967625E0
1.256210075E1,1.755878329E-1,3.203898430E0,1.270056725E0,3.450918765E0
1.256997429E1,1.541555524E-1,3.159852743E0,1.264576912E0,3.406991056E0
1.257787834E1,1.538305283E-1,3.154437542E0,1.268562317E0,3.403438025E0
1.258575188E1,1.554241776E-1,3.103980303E0,1.284519196E0,3.362861870E0
1.259362541E1,1.561306119E-1,3.055225611E0,1.304650307E0,3.325792044E0
1.260159050E1,1.537908912E-1,3.021290064E0,1.324898720E0,3.302605321E0
1.260946404E1,1.459825635E-1,2.969790697E0,1.320711136E0,3.253497441E0
1.261739861E1,1.256612539E-1,2.909540892E0,1.338565826E0,3.205148580E0
1.262530266E1,1.168975830E-1,2.847383738E0,1.330491066E0,3.145070058E0
1.263323723E1,1.003991961E-1,2.799100161E0,1.324792862E0,3.098405692E0
1.264120232E1,8.579689264E-2,2.715357542E0,1.329267502E0,3.024480084E0
1.264910637E1,8.513414860E-2,2.637903929E0,1.356526375E0,2.967481890E0
1.265707146E1,7.202965021E-2,2.574666262E0,1.353165627E0,2.909493400E0
1.266497551E1,8.009916544E-2,2.469011784E0,1.365221024E0,2.822456998E0
1.267287956E1,5.426609516E-2,2.398404598E0,1.376449585E0,2.765845781E0
1.268084465E1,3.047621250E-2,2.284522057E0,1.369400978E0,2.663687081E0
1.268874870E1,1.833766699E-2,2.200460434E0,1.383112907E0,2.599108252E0
1.269668327E1,-8.453071117E-3,2.096982956E0,1.389423370E0,2.515533000E0
1.270458733E1,-3.800219297E-2,1.979911208E0,1.421352386E0,2.437567469E0
1.271258293E1,-1.741725206E-2,1.853345037E0,1.460595131E0,2.359773150E0
1.272051750E1,-4.976308346E-2,1.758791089E0,1.473057747E0,2.294716014E0
1.272839104E1,-6.541031599E-2,1.642594099E0,1.502527237E0,2.227101700E0
1.273632561E1,-8.590430021E-2,1.505157948E0,1.508533478E0,2.132733750E0
1.274419914E1,-1.090507507E-1,1.385069609E0,1.535848618E0,2.071024110E0
1.275207268E1,-1.274319291E-1,1.265697479E0,1.528055191E0,1.988260967E0
1.276003777E1,-1.242357492E-1,1.131444454E0,1.537464142E0,1.912955060E0
1.276788078E1,-1.548331380E-1,1.026954412E0,1.508813858E0,1.831700828E0
1.277581535E1,-1.615214944E-1,9.144544601E-1,1.526956558E0,1.787152059E0
1.278368889E1,-1.754974723E-1,7.789435387E-1,1.533546448E0,1.728964172E0
1.279156242E1,-1.868531108E-1,6.389477253E-1,1.514875412E0,1.654695076E0
1.279952751E1,-2.004171610E-1,5.035014153E-1,1.501984596E0,1.596758730E0
1.280743157E1,-2.308981419E-1,3.701233864E-1,1.480564117E0,1.543494535E0
1.281536614E1,-2.229352891E-1,2.586526871E-1,1.434128761E0,1.474220696E0
1.282323967E1,-2.267842889E-1,1.329739094E-1,1.415374756E0,1.439582882E0
1.283108269E1,-2.497386634E-1,-7.689237595E-3,1.357677460E0,1.380476950E0
1.283904778E1,-2.579893470E-1,-1.481748819E-1,1.327782631E0,1.360706072E0
1.284695183E1,-2.685486376E-1,-2.777286768E-1,1.304424286E0,1.360431662E0
1.285488640E1,-2.933652699E-1,-4.129912853E-1,1.263710976E0,1.361466273E0
1.286275993E1,-2.869351804E-1,-5.398336649E-1,1.239149094E0,1.381753473E0
1.287072502E1,-2.947260737E-1,-6.783310175E-1,1.211826324E0,1.419689920E0
1.287865959E1,-3.121359646E-1,-8.047261238E-1,1.164630890E0,1.449613088E0
1.288656364E1,-3.028965890E-1,-9.248714447E-1,1.100462914E0,1.469065062E0
1.289449822E1,-3.053972423E-1,-1.054261565E0,1.047869682E0,1.517486670E0
1.290240227E1,-3.126193285E-1,-1.171694517E0,9.900331497E-1,1.565491783E0
1.291027580E1,-3.171790838E-1,-1.275634289E0,9.007205963E-1,1.593468858E0
